"participantid_in_session","participantcode","playerid_in_group","attack","endowment","playertullock","production","opponent_production","playertotal_production","arming","opponent_arming","playertotal_arming","playerprize","playerprob","playerprob_percent","opponent_attack","win_conflict","playerearnings","playerpayoff4","playerpayround4","belief_attack","belief_arming","playerproduction_est","playertype","groupid_in_subsession","grouptullock","period","sessioncode","treatment","playerpayoff1","playerpayoff2","playerpayoff3","comp1","comp2","likestowin","compulsive","playerr1","playerr2","playerr3","playerr4","playerr5","playerr6","playerr7","playerr8","playerr9","playerr10","playeractive","playerpassive","playerl1","playerl2","playerl3","playerl4","playerl5","playerl6","playerhead","playergamble","playersend","playerback","playerreturn1","playerreturn2","playerreturn3","playerreturn4","playerreturn5","playerreturn6","playerreturn7","playerreturn8","playerreturn9","playerspieler1","playerspieler2","playerrole1","playerpayround1","playerpayround2","playerfinal_payoff","playerfinal_payoff_help","auszahlung","age","male","playerdem_study","bachelor","playerdem_understand","playerattack_profit","playerattack_spite","playerattack_super","playerattack_fight1","playerattack_fight2","playerattack_encourage","playerattack_chance","playerattack_mistake","playerattack_understand","playernoattack_risk","playernoattack_efficient","playernoattack_ownprofit","playernoattack_otherprofit","playernoattack_discourage","playernoattack_mistake","playernoattack_understand","playerarming_attack","playerarming_security","playerarming_noattack","playerarming_inefficient","playerarming_unequala1","playerarming_unequala2","playerarming_unequalb1","playerarming_unequalb2","playerarming_understand","id","session","indep_obs","conflict","rel_arming","arm_def","arm_att","unarmed_peace","Strategies3","choose_UP","choose_UC","choose_AP","choose_AC","riskaverse","econstudent"
7,"0fn8nj11",1,1,80,1,5,60,65,75,60,135,29,0.555555582046509,56,0,1,29,43,NA,NA,NA,NA,1,7,1,7,"zlc5ls51",0,80,-10,16,10,10,10,6,0,0,1,1,1,0,0,0,1,1,40,40,1,1,0,0,0,0,1,1,0,NA,0,0,0,0,0,0,0,0,0,0,0,1,2,1,129,12.8999996185303,13,25,1,12,1,3,0,0,2,0,1,4,0,3,3,4,4,4,4,4,4,4,0,4,3,3,0,3,NA,NA,3,1,1,1,1,0.9375,NA,75,0,4,0,0,0,1,0.363636363636364,1
7,"0fn8nj11",1,1,80,1,5,80,85,75,40,115,38,0.652173936367035,65,1,0,0,NA,NA,NA,NA,NA,NA,7,1,2,"zlc5ls51",0,80,-10,16,10,10,10,6,0,0,1,1,1,0,0,0,1,1,40,40,1,1,0,0,0,0,1,1,0,NA,0,0,0,0,0,0,0,0,0,0,0,1,2,1,129,12.8999996185303,13,25,1,12,1,3,0,0,2,0,1,4,0,3,3,4,4,4,4,4,4,4,0,4,3,3,0,3,NA,NA,3,1,1,1,1,0.9375,NA,75,0,4,0,0,0,1,0.363636363636364,1
7,"0fn8nj11",1,1,80,1,10,90,100,70,30,100,45,0.699999988079071,70,0,1,45,NA,NA,1,80,40,NA,7,1,1,"zlc5ls51",0,80,-10,16,10,10,10,6,0,0,1,1,1,0,0,0,1,1,40,40,1,1,0,0,0,0,1,1,0,NA,0,0,0,0,0,0,0,0,0,0,0,1,2,1,129,12.8999996185303,13,25,1,12,1,3,0,0,2,0,1,4,0,3,3,4,4,4,4,4,4,4,0,4,3,3,0,3,NA,NA,3,1,1,1,1,0.875,NA,70,0,4,0,0,0,1,0.363636363636364,1
7,"0fn8nj11",1,1,80,1,5,100,105,75,20,95,47,0.789473712444305,79,0,1,47,NA,NA,NA,NA,NA,NA,6,1,3,"zlc5ls51",0,80,-10,16,10,10,10,6,0,0,1,1,1,0,0,0,1,1,40,40,1,1,0,0,0,0,1,1,0,NA,0,0,0,0,0,0,0,0,0,0,0,1,2,1,129,12.8999996185303,13,25,1,12,1,3,0,0,2,0,1,4,0,3,3,4,4,4,4,4,4,4,0,4,3,3,0,3,NA,NA,3,1,1,1,1,0.9375,NA,75,0,4,0,0,0,1,0.363636363636364,1
7,"0fn8nj11",1,1,80,1,5,90,95,75,30,105,43,0.714285731315613,71,0,1,43,NA,NA,NA,NA,NA,NA,7,1,4,"zlc5ls51",0,80,-10,16,10,10,10,6,0,0,1,1,1,0,0,0,1,1,40,40,1,1,0,0,0,0,1,1,0,NA,0,0,0,0,0,0,0,0,0,0,0,1,2,1,129,12.8999996185303,13,25,1,12,1,3,0,0,2,0,1,4,0,3,3,4,4,4,4,4,4,4,0,4,3,3,0,3,NA,NA,3,1,1,1,1,0.9375,NA,75,0,4,0,0,0,1,0.363636363636364,1
7,"0fn8nj11",1,1,80,1,5,90,95,75,30,105,43,0.714285731315613,71,0,1,43,NA,NA,NA,NA,NA,NA,1,1,5,"zlc5ls51",0,80,-10,16,10,10,10,6,0,0,1,1,1,0,0,0,1,1,40,40,1,1,0,0,0,0,1,1,0,NA,0,0,0,0,0,0,0,0,0,0,0,1,2,1,129,12.8999996185303,13,25,1,12,1,3,0,0,2,0,1,4,0,3,3,4,4,4,4,4,4,4,0,4,3,3,0,3,NA,NA,3,1,1,1,1,0.9375,NA,75,0,4,0,0,0,1,0.363636363636364,1
7,"0fn8nj11",1,1,80,1,10,70,80,70,50,120,36,0.583333313465118,58,1,1,36,NA,NA,NA,NA,NA,NA,7,1,6,"zlc5ls51",0,80,-10,16,10,10,10,6,0,0,1,1,1,0,0,0,1,1,40,40,1,1,0,0,0,0,1,1,0,NA,0,0,0,0,0,0,0,0,0,0,0,1,2,1,129,12.8999996185303,13,25,1,12,1,3,0,0,2,0,1,4,0,3,3,4,4,4,4,4,4,4,0,4,3,3,0,3,NA,NA,3,1,1,1,1,0.875,NA,70,0,4,0,0,0,1,0.363636363636364,1
12,"0pc5zgl4",2,1,120,1,0,1,1,120,79,199,0,0.603015065193176,60,1,0,0,NA,NA,NA,NA,NA,NA,1,1,4,"a9g7r98j",0,80,-10,21,3,3,3,3,0,0,1,1,1,0,0,0,1,1,40,40,1,1,1,0,0,0,1,1,0,NA,0,0,0,0,0,0,0,0,0,0,0,1,2,1,113,11.3000001907349,11.5,43,1,7,0,2,0,2,2,2,2,3,1,3,3,3,3,3,3,3,3,3,1,2,3,3,NA,NA,0,3,3,8,8,8,1,1,NA,120,0,4,0,0,0,1,0.545454545454545,0
12,"0pc5zgl4",2,1,120,1,0,80,80,120,0,120,36,1,100,0,1,36,NA,NA,NA,NA,NA,NA,3,1,3,"a9g7r98j",0,80,-10,21,3,3,3,3,0,0,1,1,1,0,0,0,1,1,40,40,1,1,1,0,0,0,1,1,0,NA,0,0,0,0,0,0,0,0,0,0,0,1,2,1,113,11.3000001907349,11.5,43,1,7,0,2,0,2,2,2,2,3,1,3,3,3,3,3,3,3,3,3,1,2,3,3,NA,NA,0,3,3,8,8,8,1,1,NA,120,0,4,0,0,0,1,0.545454545454545,0
12,"0pc5zgl4",2,1,120,1,0,60,60,120,20,140,27,0.857142865657806,86,0,1,27,NA,NA,NA,NA,NA,NA,7,1,6,"a9g7r98j",0,80,-10,21,3,3,3,3,0,0,1,1,1,0,0,0,1,1,40,40,1,1,1,0,0,0,1,1,0,NA,0,0,0,0,0,0,0,0,0,0,0,1,2,1,113,11.3000001907349,11.5,43,1,7,0,2,0,2,2,2,2,3,1,3,3,3,3,3,3,3,3,3,1,2,3,3,NA,NA,0,3,3,8,8,8,1,1,NA,120,0,4,0,0,0,1,0.545454545454545,0
12,"0pc5zgl4",2,1,120,1,0,25,25,120,55,175,11,0.685714304447174,69,1,1,11,NA,NA,0,20,60,NA,5,1,1,"a9g7r98j",0,80,-10,21,3,3,3,3,0,0,1,1,1,0,0,0,1,1,40,40,1,1,1,0,0,0,1,1,0,NA,0,0,0,0,0,0,0,0,0,0,0,1,2,1,113,11.3000001907349,11.5,43,1,7,0,2,0,2,2,2,2,3,1,3,3,3,3,3,3,3,3,3,1,2,3,3,NA,NA,0,3,3,8,8,8,1,1,NA,120,0,4,0,0,0,1,0.545454545454545,0
12,"0pc5zgl4",2,1,120,1,0,30,30,120,50,170,14,0.705882370471954,71,0,1,14,NA,NA,NA,NA,NA,NA,4,1,2,"a9g7r98j",0,80,-10,21,3,3,3,3,0,0,1,1,1,0,0,0,1,1,40,40,1,1,1,0,0,0,1,1,0,NA,0,0,0,0,0,0,0,0,0,0,0,1,2,1,113,11.3000001907349,11.5,43,1,7,0,2,0,2,2,2,2,3,1,3,3,3,3,3,3,3,3,3,1,2,3,3,NA,NA,0,3,3,8,8,8,1,1,NA,120,0,4,0,0,0,1,0.545454545454545,0
12,"0pc5zgl4",2,1,120,1,0,50,50,120,30,150,22,0.800000011920929,80,0,1,22,NA,NA,NA,NA,NA,NA,7,1,5,"a9g7r98j",0,80,-10,21,3,3,3,3,0,0,1,1,1,0,0,0,1,1,40,40,1,1,1,0,0,0,1,1,0,NA,0,0,0,0,0,0,0,0,0,0,0,1,2,1,113,11.3000001907349,11.5,43,1,7,0,2,0,2,2,2,2,3,1,3,3,3,3,3,3,3,3,3,1,2,3,3,NA,NA,0,3,3,8,8,8,1,1,NA,120,0,4,0,0,0,1,0.545454545454545,0
12,"0pc5zgl4",2,1,120,1,0,0,0,120,80,200,0,0.600000023841858,60,1,0,0,22,NA,NA,NA,NA,2,4,1,7,"a9g7r98j",0,80,-10,21,3,3,3,3,0,0,1,1,1,0,0,0,1,1,40,40,1,1,1,0,0,0,1,1,0,NA,0,0,0,0,0,0,0,0,0,0,0,1,2,1,113,11.3000001907349,11.5,43,1,7,0,2,0,2,2,2,2,3,1,3,3,3,3,3,3,3,3,3,1,2,3,3,NA,NA,0,3,3,8,8,8,1,1,NA,120,0,4,0,0,0,1,0.545454545454545,0
13,"2kf8gs6i",2,1,120,1,15,15,30,105,65,170,14,0.617647051811218,62,1,1,14,47,NA,NA,NA,NA,2,7,1,7,"e4y6khl6",0,80,-10,22,8,7,7,6,0,0,1,1,1,0,0,0,1,1,40,40,1,1,1,0,0,0,1,1,6,24,0,0,1,4,8,10,15,20,24,10,10,0,2,1,139,13.8999996185303,14,21,0,4,1,3,2,0,3,0,1,0,0,3,2,4,4,4,4,4,4,3,0,1,3,3,NA,NA,0,2,3,15,15,15,1,0.875,NA,105,0,4,0,0,0,1,0.636363636363636,0
13,"2kf8gs6i",2,1,120,1,10,60,70,110,20,130,32,0.846153855323792,85,0,1,32,NA,NA,NA,NA,NA,NA,1,1,3,"e4y6khl6",0,80,-10,22,8,7,7,6,0,0,1,1,1,0,0,0,1,1,40,40,1,1,1,0,0,0,1,1,6,24,0,0,1,4,8,10,15,20,24,10,10,0,2,1,139,13.8999996185303,14,21,0,4,1,3,2,0,3,0,1,0,0,3,2,4,4,4,4,4,4,3,0,1,3,3,NA,NA,0,2,3,15,15,15,1,0.916666666666667,NA,110,0,4,0,0,0,1,0.636363636363636,0
13,"2kf8gs6i",2,1,120,1,20,60,80,100,20,120,36,0.833333313465118,83,0,1,36,NA,NA,NA,NA,NA,NA,4,1,4,"e4y6khl6",0,80,-10,22,8,7,7,6,0,0,1,1,1,0,0,0,1,1,40,40,1,1,1,0,0,0,1,1,6,24,0,0,1,4,8,10,15,20,24,10,10,0,2,1,139,13.8999996185303,14,21,0,4,1,3,2,0,3,0,1,0,0,3,2,4,4,4,4,4,4,3,0,1,3,3,NA,NA,0,2,3,15,15,15,1,0.833333333333333,NA,100,0,4,0,0,0,1,0.636363636363636,0
13,"2kf8gs6i",2,1,120,1,30,20,50,90,60,150,22,0.600000023841858,60,1,0,0,NA,NA,NA,NA,NA,NA,6,1,2,"e4y6khl6",0,80,-10,22,8,7,7,6,0,0,1,1,1,0,0,0,1,1,40,40,1,1,1,0,0,0,1,1,6,24,0,0,1,4,8,10,15,20,24,10,10,0,2,1,139,13.8999996185303,14,21,0,4,1,3,2,0,3,0,1,0,0,3,2,4,4,4,4,4,4,3,0,1,3,3,NA,NA,0,2,3,15,15,15,1,0.75,NA,90,0,4,0,0,0,1,0.636363636363636,0
13,"2kf8gs6i",2,1,120,1,30,5,35,90,75,165,16,0.545454561710358,55,1,0,0,NA,NA,NA,NA,NA,NA,1,1,6,"e4y6khl6",0,80,-10,22,8,7,7,6,0,0,1,1,1,0,0,0,1,1,40,40,1,1,1,0,0,0,1,1,6,24,0,0,1,4,8,10,15,20,24,10,10,0,2,1,139,13.8999996185303,14,21,0,4,1,3,2,0,3,0,1,0,0,3,2,4,4,4,4,4,4,3,0,1,3,3,NA,NA,0,2,3,15,15,15,1,0.75,NA,90,0,4,0,0,0,1,0.636363636363636,0
13,"2kf8gs6i",2,1,120,1,70,0,70,50,80,130,32,0.384615391492844,38,1,0,0,NA,NA,0,20,60,NA,3,1,1,"e4y6khl6",0,80,-10,22,8,7,7,6,0,0,1,1,1,0,0,0,1,1,40,40,1,1,1,0,0,0,1,1,6,24,0,0,1,4,8,10,15,20,24,10,10,0,2,1,139,13.8999996185303,14,21,0,4,1,3,2,0,3,0,1,0,0,3,2,4,4,4,4,4,4,3,0,1,3,3,NA,NA,0,2,3,15,15,15,1,0.416666666666667,NA,50,0,4,0,0,0,1,0.636363636363636,0
13,"2kf8gs6i",2,1,120,1,25,80,105,95,0,95,47,1,100,0,1,47,NA,NA,NA,NA,NA,NA,2,1,5,"e4y6khl6",0,80,-10,22,8,7,7,6,0,0,1,1,1,0,0,0,1,1,40,40,1,1,1,0,0,0,1,1,6,24,0,0,1,4,8,10,15,20,24,10,10,0,2,1,139,13.8999996185303,14,21,0,4,1,3,2,0,3,0,1,0,0,3,2,4,4,4,4,4,4,3,0,1,3,3,NA,NA,0,2,3,15,15,15,1,0.791666666666667,NA,95,0,4,0,0,0,1,0.636363636363636,0
12,"2qlfofh8",2,0,120,1,115,10,125,5,70,75,56,0.0666666701436043,7,1,0,0,NA,NA,NA,NA,NA,NA,7,1,5,"e4y6khl6",0,80,30,30,2,5,6,4,0,0,1,1,1,0,0,0,0,1,40,40,1,1,1,0,0,0,0,1,10,NA,0,0,0,3,8,10,14,17,20,10,10,1,2,1,140,14,14,20,0,13,0,3,3,3,1,1,1,2,1,2,3,2,1,0,0,2,3,3,2,1,2,0,NA,NA,2,1,3,22,15,15,1,0.0416666666666667,5,NA,0,2,0,0,1,0,0.636363636363636,0
12,"2qlfofh8",2,1,120,1,40,40,80,80,40,120,36,0.666666686534882,67,0,1,36,0,NA,NA,NA,NA,2,4,1,7,"e4y6khl6",0,80,30,30,2,5,6,4,0,0,1,1,1,0,0,0,0,1,40,40,1,1,1,0,0,0,0,1,10,NA,0,0,0,3,8,10,14,17,20,10,10,1,2,1,140,14,14,20,0,13,0,3,3,3,1,1,1,2,1,2,3,2,1,0,0,2,3,3,2,1,2,0,NA,NA,2,1,3,22,15,15,1,0.666666666666667,NA,80,0,4,0,0,0,1,0.636363636363636,0
12,"2qlfofh8",2,0,120,0,80,50,130,40,30,70,58,0.571428596973419,57,0,NA,80,NA,NA,NA,NA,NA,NA,4,0,2,"e4y6khl6",0,80,30,30,2,5,6,4,0,0,1,1,1,0,0,0,0,1,40,40,1,1,1,0,0,0,0,1,10,NA,0,0,0,3,8,10,14,17,20,10,10,1,2,1,140,14,14,20,0,13,0,3,3,3,1,1,1,2,1,2,3,2,1,0,0,2,3,3,2,1,2,0,NA,NA,2,1,3,22,15,15,0,0.333333333333333,40,NA,0,2,0,0,1,0,0.636363636363636,0
12,"2qlfofh8",2,0,120,0,110,80,190,10,0,10,86,1,100,0,NA,110,NA,NA,NA,NA,NA,NA,1,0,4,"e4y6khl6",0,80,30,30,2,5,6,4,0,0,1,1,1,0,0,0,0,1,40,40,1,1,1,0,0,0,0,1,10,NA,0,0,0,3,8,10,14,17,20,10,10,1,2,1,140,14,14,20,0,13,0,3,3,3,1,1,1,2,1,2,3,2,1,0,0,2,3,3,2,1,2,0,NA,NA,2,1,3,22,15,15,0,0.0833333333333333,10,NA,0,2,0,0,1,0,0.636363636363636,0
12,"2qlfofh8",2,1,120,1,70,15,85,50,65,115,38,0.434782594442368,43,1,0,0,NA,NA,NA,NA,NA,NA,7,1,6,"e4y6khl6",0,80,30,30,2,5,6,4,0,0,1,1,1,0,0,0,0,1,40,40,1,1,1,0,0,0,0,1,10,NA,0,0,0,3,8,10,14,17,20,10,10,1,2,1,140,14,14,20,0,13,0,3,3,3,1,1,1,2,1,2,3,2,1,0,0,2,3,3,2,1,2,0,NA,NA,2,1,3,22,15,15,1,0.416666666666667,NA,50,0,4,0,0,0,1,0.636363636363636,0
12,"2qlfofh8",2,1,120,1,70,20,90,50,60,110,40,0.454545468091965,45,1,0,0,NA,NA,0,30,50,NA,5,1,1,"e4y6khl6",0,80,30,30,2,5,6,4,0,0,1,1,1,0,0,0,0,1,40,40,1,1,1,0,0,0,0,1,10,NA,0,0,0,3,8,10,14,17,20,10,10,1,2,1,140,14,14,20,0,13,0,3,3,3,1,1,1,2,1,2,3,2,1,0,0,2,3,3,2,1,2,0,NA,NA,2,1,3,22,15,15,1,0.416666666666667,NA,50,0,4,0,0,0,1,0.636363636363636,0
12,"2qlfofh8",2,1,120,1,50,40,90,70,40,110,40,0.636363625526428,64,0,1,40,NA,NA,NA,NA,NA,NA,3,1,3,"e4y6khl6",0,80,30,30,2,5,6,4,0,0,1,1,1,0,0,0,0,1,40,40,1,1,1,0,0,0,0,1,10,NA,0,0,0,3,8,10,14,17,20,10,10,1,2,1,140,14,14,20,0,13,0,3,3,3,1,1,1,2,1,2,3,2,1,0,0,2,3,3,2,1,2,0,NA,NA,2,1,3,22,15,15,1,0.583333333333333,NA,70,0,4,0,0,0,1,0.636363636363636,0
3,"2zr815gf",1,0,80,1,80,20,100,0,100,100,45,0,0,1,0,0,NA,NA,NA,NA,NA,NA,3,1,6,"x7h85wfe",0,80,0,28,6,5,8,3,0,0,1,1,1,0,0,0,1,1,40,40,0,0,0,0,0,1,0,0,6,6,0,2,4,6,8,10,12,14,16,6,6,0,6,3,135,13.5,13.5,19,0,3,1,2,3,3,3,3,3,3,3,3,3,0,0,0,0,0,3,3,3,3,3,3,3,3,NA,NA,3,29,29,29,1,0,0,NA,0,1,1,0,0,0,0.636363636363636,0
3,"2zr815gf",1,0,80,1,79,70,149,1,50,51,67,0.0196078438311815,2,1,0,0,NA,NA,1,120,0,NA,6,1,1,"x7h85wfe",0,80,0,28,6,5,8,3,0,0,1,1,1,0,0,0,1,1,40,40,0,0,0,0,0,1,0,0,6,6,0,2,4,6,8,10,12,14,16,6,6,0,6,3,135,13.5,13.5,19,0,3,1,2,3,3,3,3,3,3,3,3,3,0,0,0,0,0,3,3,3,3,3,3,3,3,NA,NA,3,29,29,29,1,0.0125,1,NA,0,2,0,0,1,0,0.636363636363636,0
3,"2zr815gf",1,1,80,1,0,60,60,80,60,140,27,0.571428596973419,57,0,1,27,27,NA,NA,NA,NA,1,3,1,7,"x7h85wfe",0,80,0,28,6,5,8,3,0,0,1,1,1,0,0,0,1,1,40,40,0,0,0,0,0,1,0,0,6,6,0,2,4,6,8,10,12,14,16,6,6,0,6,3,135,13.5,13.5,19,0,3,1,2,3,3,3,3,3,3,3,3,3,0,0,0,0,0,3,3,3,3,3,3,3,3,NA,NA,3,29,29,29,1,1,NA,80,0,4,0,0,0,1,0.636363636363636,0
3,"2zr815gf",1,1,80,1,0,65,65,80,55,135,29,0.592592597007751,59,1,1,29,NA,NA,NA,NA,NA,NA,3,1,3,"x7h85wfe",0,80,0,28,6,5,8,3,0,0,1,1,1,0,0,0,1,1,40,40,0,0,0,0,0,1,0,0,6,6,0,2,4,6,8,10,12,14,16,6,6,0,6,3,135,13.5,13.5,19,0,3,1,2,3,3,3,3,3,3,3,3,3,0,0,0,0,0,3,3,3,3,3,3,3,3,NA,NA,3,29,29,29,1,1,NA,80,0,4,0,0,0,1,0.636363636363636,0
3,"2zr815gf",1,0,80,1,80,50,130,0,70,70,58,0,0,1,0,0,NA,NA,NA,NA,NA,NA,2,1,2,"x7h85wfe",0,80,0,28,6,5,8,3,0,0,1,1,1,0,0,0,1,1,40,40,0,0,0,0,0,1,0,0,6,6,0,2,4,6,8,10,12,14,16,6,6,0,6,3,135,13.5,13.5,19,0,3,1,2,3,3,3,3,3,3,3,3,3,0,0,0,0,0,3,3,3,3,3,3,3,3,NA,NA,3,29,29,29,1,0,0,NA,0,1,1,0,0,0,0.636363636363636,0
3,"2zr815gf",1,1,80,1,0,80,80,80,40,120,36,0.666666686534882,67,0,0,0,NA,NA,NA,NA,NA,NA,3,1,5,"x7h85wfe",0,80,0,28,6,5,8,3,0,0,1,1,1,0,0,0,1,1,40,40,0,0,0,0,0,1,0,0,6,6,0,2,4,6,8,10,12,14,16,6,6,0,6,3,135,13.5,13.5,19,0,3,1,2,3,3,3,3,3,3,3,3,3,0,0,0,0,0,3,3,3,3,3,3,3,3,NA,NA,3,29,29,29,1,1,NA,80,0,4,0,0,0,1,0.636363636363636,0
3,"2zr815gf",1,1,80,1,0,50,50,80,70,150,22,0.533333361148834,53,1,1,22,NA,NA,NA,NA,NA,NA,4,1,4,"x7h85wfe",0,80,0,28,6,5,8,3,0,0,1,1,1,0,0,0,1,1,40,40,0,0,0,0,0,1,0,0,6,6,0,2,4,6,8,10,12,14,16,6,6,0,6,3,135,13.5,13.5,19,0,3,1,2,3,3,3,3,3,3,3,3,3,0,0,0,0,0,3,3,3,3,3,3,3,3,NA,NA,3,29,29,29,1,1,NA,80,0,4,0,0,0,1,0.636363636363636,0
3,"4e4o0382",1,0,80,0,45,100,145,35,20,55,65,0.636363625526428,64,0,NA,45,45,NA,NA,NA,NA,1,3,0,7,"zlc5ls51",0,100,-10,36,2,8,10,7,0,0,1,1,1,0,0,0,0,0,40,60,1,1,0,0,0,0,1,1,4,10,0,2,4,6,8,10,12,14,16,10,10,0,2,1,171,17.1000003814697,17.5,20,0,3,1,3,1,2,3,3,1,3,3,3,3,0,0,0,1,0,3,3,2,0,3,3,4,4,NA,NA,3,36,1,1,0,0.4375,35,NA,0,2,0,0,1,0,0.545454545454545,0
3,"4e4o0382",1,1,80,1,20,90,110,60,30,90,50,0.666666686534882,67,1,1,50,NA,NA,1,60,60,NA,6,1,1,"zlc5ls51",0,100,-10,36,2,8,10,7,0,0,1,1,1,0,0,0,0,0,40,60,1,1,0,0,0,0,1,1,4,10,0,2,4,6,8,10,12,14,16,10,10,0,2,1,171,17.1000003814697,17.5,20,0,3,1,3,1,2,3,3,1,3,3,3,3,0,0,0,1,0,3,3,2,0,3,3,4,4,NA,NA,3,36,1,1,1,0.75,NA,60,0,4,0,0,0,1,0.545454545454545,0
3,"4e4o0382",1,1,80,1,50,50,100,30,70,100,45,0.300000011920929,30,0,1,45,NA,NA,NA,NA,NA,NA,3,1,5,"zlc5ls51",0,100,-10,36,2,8,10,7,0,0,1,1,1,0,0,0,0,0,40,60,1,1,0,0,0,0,1,1,4,10,0,2,4,6,8,10,12,14,16,10,10,0,2,1,171,17.1000003814697,17.5,20,0,3,1,3,1,2,3,3,1,3,3,3,3,0,0,0,1,0,3,3,2,0,3,3,4,4,NA,NA,3,36,1,1,1,0.375,NA,30,0,4,0,0,0,1,0.545454545454545,0
3,"4e4o0382",1,0,80,0,37,90,127,43,30,73,57,0.589041113853455,59,0,NA,37,NA,NA,NA,NA,NA,NA,4,0,4,"zlc5ls51",0,100,-10,36,2,8,10,7,0,0,1,1,1,0,0,0,0,0,40,60,1,1,0,0,0,0,1,1,4,10,0,2,4,6,8,10,12,14,16,10,10,0,2,1,171,17.1000003814697,17.5,20,0,3,1,3,1,2,3,3,1,3,3,3,3,0,0,0,1,0,3,3,2,0,3,3,4,4,NA,NA,3,36,1,1,0,0.5375,43,NA,0,2,0,0,1,0,0.545454545454545,0
3,"4e4o0382",1,0,80,0,40,100,140,40,20,60,63,0.666666686534882,67,0,NA,40,NA,NA,NA,NA,NA,NA,3,0,6,"zlc5ls51",0,100,-10,36,2,8,10,7,0,0,1,1,1,0,0,0,0,0,40,60,1,1,0,0,0,0,1,1,4,10,0,2,4,6,8,10,12,14,16,10,10,0,2,1,171,17.1000003814697,17.5,20,0,3,1,3,1,2,3,3,1,3,3,3,3,0,0,0,1,0,3,3,2,0,3,3,4,4,NA,NA,3,36,1,1,0,0.5,40,NA,0,2,0,0,1,0,0.545454545454545,0
3,"4e4o0382",1,0,80,1,30,80,110,50,40,90,50,0.555555582046509,56,1,1,50,NA,NA,NA,NA,NA,NA,3,1,3,"zlc5ls51",0,100,-10,36,2,8,10,7,0,0,1,1,1,0,0,0,0,0,40,60,1,1,0,0,0,0,1,1,4,10,0,2,4,6,8,10,12,14,16,10,10,0,2,1,171,17.1000003814697,17.5,20,0,3,1,3,1,2,3,3,1,3,3,3,3,0,0,0,1,0,3,3,2,0,3,3,4,4,NA,NA,3,36,1,1,1,0.625,50,NA,0,2,0,0,1,0,0.545454545454545,0
3,"4e4o0382",1,0,80,1,35,70,105,45,50,95,47,0.473684221506119,47,1,1,47,NA,NA,NA,NA,NA,NA,2,1,2,"zlc5ls51",0,100,-10,36,2,8,10,7,0,0,1,1,1,0,0,0,0,0,40,60,1,1,0,0,0,0,1,1,4,10,0,2,4,6,8,10,12,14,16,10,10,0,2,1,171,17.1000003814697,17.5,20,0,3,1,3,1,2,3,3,1,3,3,3,3,0,0,0,1,0,3,3,2,0,3,3,4,4,NA,NA,3,36,1,1,1,0.5625,45,NA,0,2,0,0,1,0,0.545454545454545,0
7,"4goskum7",1,1,80,1,25,110,135,55,10,65,61,0.846153855323792,85,0,1,61,NA,NA,1,100,20,NA,7,1,1,"e4y6khl6",0,80,-10,8,7,7,9,6,0,0,1,1,1,0,0,0,0,0,40,40,1,1,0,0,0,0,1,1,8,NA,0,2,4,12,16,17,24,27,32,8,0,1,2,1,78,7.80000019073486,8,19,1,3,1,3,0,0,1,0,0,0,1,3,3,3,2,3,1,3,3,3,0,0,3,3,0,3,NA,NA,3,43,15,15,1,0.6875,NA,55,0,4,0,0,0,1,0.727272727272727,0
7,"4goskum7",1,1,80,1,15,15,30,65,105,170,14,0.382352948188782,38,1,0,0,0,NA,NA,NA,NA,1,7,1,7,"e4y6khl6",0,80,-10,8,7,7,9,6,0,0,1,1,1,0,0,0,0,0,40,40,1,1,0,0,0,0,1,1,8,NA,0,2,4,12,16,17,24,27,32,8,0,1,2,1,78,7.80000019073486,8,19,1,3,1,3,0,0,1,0,0,0,1,3,3,3,2,3,1,3,3,3,0,0,3,3,0,3,NA,NA,3,43,15,15,1,0.8125,NA,65,0,4,0,0,0,1,0.727272727272727,0
7,"4goskum7",1,1,80,1,15,55,70,65,65,130,32,0.5,50,0,1,32,NA,NA,NA,NA,NA,NA,6,1,3,"e4y6khl6",0,80,-10,8,7,7,9,6,0,0,1,1,1,0,0,0,0,0,40,40,1,1,0,0,0,0,1,1,8,NA,0,2,4,12,16,17,24,27,32,8,0,1,2,1,78,7.80000019073486,8,19,1,3,1,3,0,0,1,0,0,0,1,3,3,3,2,3,1,3,3,3,0,0,3,3,0,3,NA,NA,3,43,15,15,1,0.8125,NA,65,0,4,0,0,0,1,0.727272727272727,0
7,"4goskum7",1,1,80,1,15,60,75,65,60,125,34,0.519999980926514,52,1,0,0,NA,NA,NA,NA,NA,NA,1,1,5,"e4y6khl6",0,80,-10,8,7,7,9,6,0,0,1,1,1,0,0,0,0,0,40,40,1,1,0,0,0,0,1,1,8,NA,0,2,4,12,16,17,24,27,32,8,0,1,2,1,78,7.80000019073486,8,19,1,3,1,3,0,0,1,0,0,0,1,3,3,3,2,3,1,3,3,3,0,0,3,3,0,3,NA,NA,3,43,15,15,1,0.8125,NA,65,0,4,0,0,0,1,0.727272727272727,0
7,"4goskum7",1,1,80,1,15,70,85,65,50,115,38,0.56521737575531,57,1,1,38,NA,NA,NA,NA,NA,NA,7,1,6,"e4y6khl6",0,80,-10,8,7,7,9,6,0,0,1,1,1,0,0,0,0,0,40,40,1,1,0,0,0,0,1,1,8,NA,0,2,4,12,16,17,24,27,32,8,0,1,2,1,78,7.80000019073486,8,19,1,3,1,3,0,0,1,0,0,0,1,3,3,3,2,3,1,3,3,3,0,0,3,3,0,3,NA,NA,3,43,15,15,1,0.8125,NA,65,0,4,0,0,0,1,0.727272727272727,0
7,"4goskum7",1,1,80,1,15,100,115,65,20,85,52,0.764705896377563,76,0,1,52,NA,NA,NA,NA,NA,NA,7,1,4,"e4y6khl6",0,80,-10,8,7,7,9,6,0,0,1,1,1,0,0,0,0,0,40,40,1,1,0,0,0,0,1,1,8,NA,0,2,4,12,16,17,24,27,32,8,0,1,2,1,78,7.80000019073486,8,19,1,3,1,3,0,0,1,0,0,0,1,3,3,3,2,3,1,3,3,3,0,0,3,3,0,3,NA,NA,3,43,15,15,1,0.8125,NA,65,0,4,0,0,0,1,0.727272727272727,0
7,"4goskum7",1,1,80,1,20,60,80,60,60,120,36,0.5,50,1,1,36,NA,NA,NA,NA,NA,NA,7,1,2,"e4y6khl6",0,80,-10,8,7,7,9,6,0,0,1,1,1,0,0,0,0,0,40,40,1,1,0,0,0,0,1,1,8,NA,0,2,4,12,16,17,24,27,32,8,0,1,2,1,78,7.80000019073486,8,19,1,3,1,3,0,0,1,0,0,0,1,3,3,3,2,3,1,3,3,3,0,0,3,3,0,3,NA,NA,3,43,15,15,1,0.75,NA,60,0,4,0,0,0,1,0.727272727272727,0
8,"4x82mrso",2,1,120,1,20,80,100,100,0,100,45,1,100,0,1,45,NA,NA,NA,NA,NA,NA,3,1,6,"x7h85wfe",0,60,-20,22,8,8,8,5,0,1,1,1,1,0,0,0,0,1,40,20,1,1,1,0,0,0,1,1,12,0,0,0,4,6,6,8,9,10,12,2,0,0,6,3,94,9.39999961853027,9.5,23,1,11,1,3,1,1,2,0,0,2,1,3,3,3,3,3,3,3,3,3,0,0,3,3,NA,NA,0,4,3,50,29,29,1,0.833333333333333,NA,100,0,4,0,0,0,1,0.363636363636364,0
8,"4x82mrso",2,1,120,1,30,40,70,90,40,130,32,0.692307710647583,69,1,1,32,32,NA,NA,NA,NA,2,2,1,7,"x7h85wfe",0,60,-20,22,8,8,8,5,0,1,1,1,1,0,0,0,0,1,40,20,1,1,1,0,0,0,1,1,12,0,0,0,4,6,6,8,9,10,12,2,0,0,6,3,94,9.39999961853027,9.5,23,1,11,1,3,1,1,2,0,0,2,1,3,3,3,3,3,3,3,3,3,0,0,3,3,NA,NA,0,4,3,50,29,29,1,0.75,NA,90,0,4,0,0,0,1,0.363636363636364,0
8,"4x82mrso",2,1,120,1,50,50,100,70,30,100,45,0.699999988079071,70,0,1,45,NA,NA,0,40,40,NA,1,1,1,"x7h85wfe",0,60,-20,22,8,8,8,5,0,1,1,1,1,0,0,0,0,1,40,20,1,1,1,0,0,0,1,1,12,0,0,0,4,6,6,8,9,10,12,2,0,0,6,3,94,9.39999961853027,9.5,23,1,11,1,3,1,1,2,0,0,2,1,3,3,3,3,3,3,3,3,3,0,0,3,3,NA,NA,0,4,3,50,29,29,1,0.583333333333333,NA,70,0,4,0,0,0,1,0.363636363636364,0
8,"4x82mrso",2,1,120,1,40,70,110,80,10,90,50,0.888888895511627,89,0,0,0,NA,NA,NA,NA,NA,NA,7,1,3,"x7h85wfe",0,60,-20,22,8,8,8,5,0,1,1,1,1,0,0,0,0,1,40,20,1,1,1,0,0,0,1,1,12,0,0,0,4,6,6,8,9,10,12,2,0,0,6,3,94,9.39999961853027,9.5,23,1,11,1,3,1,1,2,0,0,2,1,3,3,3,3,3,3,3,3,3,0,0,3,3,NA,NA,0,4,3,50,29,29,1,0.666666666666667,NA,80,0,4,0,0,0,1,0.363636363636364,0
8,"4x82mrso",2,1,120,1,60,10,70,60,70,130,32,0.461538463830948,46,1,0,0,NA,NA,NA,NA,NA,NA,4,1,5,"x7h85wfe",0,60,-20,22,8,8,8,5,0,1,1,1,1,0,0,0,0,1,40,20,1,1,1,0,0,0,1,1,12,0,0,0,4,6,6,8,9,10,12,2,0,0,6,3,94,9.39999961853027,9.5,23,1,11,1,3,1,1,2,0,0,2,1,3,3,3,3,3,3,3,3,3,0,0,3,3,NA,NA,0,4,3,50,29,29,1,0.5,NA,60,0,4,0,0,0,1,0.363636363636364,0
8,"4x82mrso",2,1,120,1,30,20,50,90,60,150,22,0.600000023841858,60,1,1,22,NA,NA,NA,NA,NA,NA,6,1,4,"x7h85wfe",0,60,-20,22,8,8,8,5,0,1,1,1,1,0,0,0,0,1,40,20,1,1,1,0,0,0,1,1,12,0,0,0,4,6,6,8,9,10,12,2,0,0,6,3,94,9.39999961853027,9.5,23,1,11,1,3,1,1,2,0,0,2,1,3,3,3,3,3,3,3,3,3,0,0,3,3,NA,NA,0,4,3,50,29,29,1,0.75,NA,90,0,4,0,0,0,1,0.363636363636364,0
8,"4x82mrso",2,1,120,1,50,20,70,70,60,130,32,0.538461565971375,54,1,0,0,NA,NA,NA,NA,NA,NA,7,1,2,"x7h85wfe",0,60,-20,22,8,8,8,5,0,1,1,1,1,0,0,0,0,1,40,20,1,1,1,0,0,0,1,1,12,0,0,0,4,6,6,8,9,10,12,2,0,0,6,3,94,9.39999961853027,9.5,23,1,11,1,3,1,1,2,0,0,2,1,3,3,3,3,3,3,3,3,3,0,0,3,3,NA,NA,0,4,3,50,29,29,1,0.583333333333333,NA,70,0,4,0,0,0,1,0.363636363636364,0
13,"5e2s5n97",2,1,120,1,51,10,61,69,70,139,27,0.496402889490128,50,1,1,27,NA,NA,NA,NA,NA,NA,1,1,6,"a9g7r98j",0,80,-10,11,10,9,9,5,0,0,1,1,1,0,0,0,0,1,40,40,1,1,1,0,0,0,1,1,10,5,0,0,0,3,5,7,0,10,12,0,0,0,2,1,81,8.10000038146973,8.5,24,1,10,1,3,1,1,2,1,1,1,1,3,3,3,2,2,2,3,3,3,0,1,3,3,NA,NA,0,2,3,57,8,8,1,0.575,NA,69,0,4,0,0,0,1,0.363636363636364,0
13,"5e2s5n97",2,1,120,1,45,10,55,75,70,145,25,0.517241358757019,52,1,1,25,NA,NA,NA,NA,NA,NA,1,1,3,"a9g7r98j",0,80,-10,11,10,9,9,5,0,0,1,1,1,0,0,0,0,1,40,40,1,1,1,0,0,0,1,1,10,5,0,0,0,3,5,7,0,10,12,0,0,0,2,1,81,8.10000038146973,8.5,24,1,10,1,3,1,1,2,1,1,1,1,3,3,3,2,2,2,3,3,3,0,1,3,3,NA,NA,0,2,3,57,8,8,1,0.625,NA,75,0,4,0,0,0,1,0.363636363636364,0
13,"5e2s5n97",2,1,120,1,49,60,109,71,20,91,49,0.780219793319702,78,0,1,49,0,NA,NA,NA,NA,2,7,1,7,"a9g7r98j",0,80,-10,11,10,9,9,5,0,0,1,1,1,0,0,0,0,1,40,40,1,1,1,0,0,0,1,1,10,5,0,0,0,3,5,7,0,10,12,0,0,0,2,1,81,8.10000038146973,8.5,24,1,10,1,3,1,1,2,1,1,1,1,3,3,3,2,2,2,3,3,3,0,1,3,3,NA,NA,0,2,3,57,8,8,1,0.591666666666667,NA,71,0,4,0,0,0,1,0.363636363636364,0
13,"5e2s5n97",2,1,120,1,41,79,120,79,1,80,54,0.987500011920929,99,0,1,54,NA,NA,0,40,40,NA,3,1,1,"a9g7r98j",0,80,-10,11,10,9,9,5,0,0,1,1,1,0,0,0,0,1,40,40,1,1,1,0,0,0,1,1,10,5,0,0,0,3,5,7,0,10,12,0,0,0,2,1,81,8.10000038146973,8.5,24,1,10,1,3,1,1,2,1,1,1,1,3,3,3,2,2,2,3,3,3,0,1,3,3,NA,NA,0,2,3,57,8,8,1,0.658333333333333,NA,79,0,4,0,0,0,1,0.363636363636364,0
13,"5e2s5n97",2,0,120,1,110,0,110,10,80,90,50,0.111111111938953,11,1,0,0,NA,NA,NA,NA,NA,NA,4,1,4,"a9g7r98j",0,80,-10,11,10,9,9,5,0,0,1,1,1,0,0,0,0,1,40,40,1,1,1,0,0,0,1,1,10,5,0,0,0,3,5,7,0,10,12,0,0,0,2,1,81,8.10000038146973,8.5,24,1,10,1,3,1,1,2,1,1,1,1,3,3,3,2,2,2,3,3,3,0,1,3,3,NA,NA,0,2,3,57,8,8,1,0.0833333333333333,10,NA,0,2,0,0,1,0,0.363636363636364,0
13,"5e2s5n97",2,0,120,1,46,25,71,74,55,129,32,0.573643386363983,57,1,1,32,NA,NA,NA,NA,NA,NA,6,1,2,"a9g7r98j",0,80,-10,11,10,9,9,5,0,0,1,1,1,0,0,0,0,1,40,40,1,1,1,0,0,0,1,1,10,5,0,0,0,3,5,7,0,10,12,0,0,0,2,1,81,8.10000038146973,8.5,24,1,10,1,3,1,1,2,1,1,1,1,3,3,3,2,2,2,3,3,3,0,1,3,3,NA,NA,0,2,3,57,8,8,1,0.616666666666667,74,NA,0,2,0,0,1,0,0.363636363636364,0
13,"5e2s5n97",2,1,120,1,45,0,45,75,80,155,20,0.483870953321457,48,1,0,0,NA,NA,NA,NA,NA,NA,2,1,5,"a9g7r98j",0,80,-10,11,10,9,9,5,0,0,1,1,1,0,0,0,0,1,40,40,1,1,1,0,0,0,1,1,10,5,0,0,0,3,5,7,0,10,12,0,0,0,2,1,81,8.10000038146973,8.5,24,1,10,1,3,1,1,2,1,1,1,1,3,3,3,2,2,2,3,3,3,0,1,3,3,NA,NA,0,2,3,57,8,8,1,0.625,NA,75,0,4,0,0,0,1,0.363636363636364,0
6,"5j64tzka",1,1,80,1,40,30,70,40,90,130,32,0.307692319154739,31,1,1,32,NA,NA,NA,NA,NA,NA,6,1,6,"x7h85wfe",0,80,30,30,3,2,9,7,0,0,0,0,1,0,0,0,0,1,40,40,1,1,1,1,1,1,0,1,6,16,0,4,6,8,12,14,14,16,16,10,14,0,6,3,140,14,14,33,0,13,0,3,4,4,4,1,1,4,4,3,3,0,0,0,2,4,3,3,2,2,1,1,2,1,NA,NA,3,64,29,29,1,0.5,NA,40,0,4,0,0,0,1,0.272727272727273,0
6,"5j64tzka",1,0,80,1,79,60,139,1,60,61,63,0.0163934417068958,2,1,0,0,0,NA,NA,NA,NA,1,4,1,7,"x7h85wfe",0,80,30,30,3,2,9,7,0,0,0,0,1,0,0,0,0,1,40,40,1,1,1,1,1,1,0,1,6,16,0,4,6,8,12,14,14,16,16,10,14,0,6,3,140,14,14,33,0,13,0,3,4,4,4,1,1,4,4,3,3,0,0,0,2,4,3,3,2,2,1,1,2,1,NA,NA,3,64,29,29,1,0.0125,1,NA,0,2,0,0,1,0,0.272727272727273,0
6,"5j64tzka",1,0,80,1,75,70,145,5,50,55,65,0.0909090936183929,9,1,0,0,NA,NA,NA,NA,NA,NA,5,1,4,"x7h85wfe",0,80,30,30,3,2,9,7,0,0,0,0,1,0,0,0,0,1,40,40,1,1,1,1,1,1,0,1,6,16,0,4,6,8,12,14,14,16,16,10,14,0,6,3,140,14,14,33,0,13,0,3,4,4,4,1,1,4,4,3,3,0,0,0,2,4,3,3,2,2,1,1,2,1,NA,NA,3,64,29,29,1,0.0625,5,NA,0,2,0,0,1,0,0.272727272727273,0
6,"5j64tzka",1,0,80,1,79,40,119,1,80,81,54,0.0123456791043282,1,1,0,0,NA,NA,0,20,100,NA,3,1,1,"x7h85wfe",0,80,30,30,3,2,9,7,0,0,0,0,1,0,0,0,0,1,40,40,1,1,1,1,1,1,0,1,6,16,0,4,6,8,12,14,14,16,16,10,14,0,6,3,140,14,14,33,0,13,0,3,4,4,4,1,1,4,4,3,3,0,0,0,2,4,3,3,2,2,1,1,2,1,NA,NA,3,64,29,29,1,0.0125,1,NA,0,2,0,0,1,0,0.272727272727273,0
6,"5j64tzka",1,0,80,0,70,120,190,10,0,10,86,1,100,0,NA,70,NA,NA,NA,NA,NA,NA,5,0,2,"x7h85wfe",0,80,30,30,3,2,9,7,0,0,0,0,1,0,0,0,0,1,40,40,1,1,1,1,1,1,0,1,6,16,0,4,6,8,12,14,14,16,16,10,14,0,6,3,140,14,14,33,0,13,0,3,4,4,4,1,1,4,4,3,3,0,0,0,2,4,3,3,2,2,1,1,2,1,NA,NA,3,64,29,29,0,0.125,10,NA,0,2,0,0,1,0,0.272727272727273,0
6,"5j64tzka",1,0,80,1,70,40,110,10,80,90,50,0.111111111938953,11,1,1,50,NA,NA,NA,NA,NA,NA,7,1,3,"x7h85wfe",0,80,30,30,3,2,9,7,0,0,0,0,1,0,0,0,0,1,40,40,1,1,1,1,1,1,0,1,6,16,0,4,6,8,12,14,14,16,16,10,14,0,6,3,140,14,14,33,0,13,0,3,4,4,4,1,1,4,4,3,3,0,0,0,2,4,3,3,2,2,1,1,2,1,NA,NA,3,64,29,29,1,0.125,10,NA,0,2,0,0,1,0,0.272727272727273,0
6,"5j64tzka",1,0,80,1,75,40,115,5,80,85,52,0.0588235296308994,6,1,0,0,NA,NA,NA,NA,NA,NA,6,1,5,"x7h85wfe",0,80,30,30,3,2,9,7,0,0,0,0,1,0,0,0,0,1,40,40,1,1,1,1,1,1,0,1,6,16,0,4,6,8,12,14,14,16,16,10,14,0,6,3,140,14,14,33,0,13,0,3,4,4,4,1,1,4,4,3,3,0,0,0,2,4,3,3,2,2,1,1,2,1,NA,NA,3,64,29,29,1,0.0625,5,NA,0,2,0,0,1,0,0.272727272727273,0
14,"6ldfr8d4",2,0,120,1,100,40,140,20,40,60,63,0.333333343267441,33,1,1,63,NA,NA,NA,NA,NA,NA,5,1,6,"x7h85wfe",0,80,-20,15,8,7,6,2,0,0,1,1,1,0,0,0,0,1,40,40,1,1,1,0,0,0,1,1,16,NA,0,0,0,5,8,15,16,18,20,16,15,1,6,3,75,7.5,7.5,19,1,12,1,3,0,1,0,2,1,2,1,3,3,0,2,1,2,3,3,3,0,1,1,2,NA,NA,1,1,3,71,29,29,1,0.166666666666667,20,NA,0,2,0,0,1,0,0.454545454545455,1
14,"6ldfr8d4",2,1,120,1,60,0,60,60,80,140,27,0.428571432828903,43,1,0,0,NA,NA,NA,NA,NA,NA,3,1,4,"x7h85wfe",0,80,-20,15,8,7,6,2,0,0,1,1,1,0,0,0,0,1,40,40,1,1,1,0,0,0,1,1,16,NA,0,0,0,5,8,15,16,18,20,16,15,1,6,3,75,7.5,7.5,19,1,12,1,3,0,1,0,2,1,2,1,3,3,0,2,1,2,3,3,3,0,1,1,2,NA,NA,1,1,3,71,29,29,1,0.5,NA,60,0,4,0,0,0,1,0.454545454545455,1
14,"6ldfr8d4",2,1,120,1,40,50,90,80,30,110,40,0.727272748947144,73,0,1,40,NA,NA,0,55,25,NA,7,1,1,"x7h85wfe",0,80,-20,15,8,7,6,2,0,0,1,1,1,0,0,0,0,1,40,40,1,1,1,0,0,0,1,1,16,NA,0,0,0,5,8,15,16,18,20,16,15,1,6,3,75,7.5,7.5,19,1,12,1,3,0,1,0,2,1,2,1,3,3,0,2,1,2,3,3,3,0,1,1,2,NA,NA,1,1,3,71,29,29,1,0.666666666666667,NA,80,0,4,0,0,0,1,0.454545454545455,1
14,"6ldfr8d4",2,0,120,1,110,0,110,10,80,90,50,0.111111111938953,11,1,0,0,0,NA,NA,NA,NA,2,1,1,7,"x7h85wfe",0,80,-20,15,8,7,6,2,0,0,1,1,1,0,0,0,0,1,40,40,1,1,1,0,0,0,1,1,16,NA,0,0,0,5,8,15,16,18,20,16,15,1,6,3,75,7.5,7.5,19,1,12,1,3,0,1,0,2,1,2,1,3,3,0,2,1,2,3,3,3,0,1,1,2,NA,NA,1,1,3,71,29,29,1,0.0833333333333333,10,NA,0,2,0,0,1,0,0.454545454545455,1
14,"6ldfr8d4",2,0,120,1,80,0,80,40,80,120,36,0.333333343267441,33,1,1,36,NA,NA,NA,NA,NA,NA,3,1,5,"x7h85wfe",0,80,-20,15,8,7,6,2,0,0,1,1,1,0,0,0,0,1,40,40,1,1,1,0,0,0,1,1,16,NA,0,0,0,5,8,15,16,18,20,16,15,1,6,3,75,7.5,7.5,19,1,12,1,3,0,1,0,2,1,2,1,3,3,0,2,1,2,3,3,3,0,1,1,2,NA,NA,1,1,3,71,29,29,1,0.333333333333333,40,NA,0,2,0,0,1,0,0.454545454545455,1
14,"6ldfr8d4",2,1,120,1,20,20,40,100,60,160,18,0.625,62,1,0,0,NA,NA,NA,NA,NA,NA,5,1,3,"x7h85wfe",0,80,-20,15,8,7,6,2,0,0,1,1,1,0,0,0,0,1,40,40,1,1,1,0,0,0,1,1,16,NA,0,0,0,5,8,15,16,18,20,16,15,1,6,3,75,7.5,7.5,19,1,12,1,3,0,1,0,2,1,2,1,3,3,0,2,1,2,3,3,3,0,1,1,2,NA,NA,1,1,3,71,29,29,1,0.833333333333333,NA,100,0,4,0,0,0,1,0.454545454545455,1
14,"6ldfr8d4",2,0,120,0,120,70,190,0,10,10,86,0,0,0,NA,120,NA,NA,NA,NA,NA,NA,5,0,2,"x7h85wfe",0,80,-20,15,8,7,6,2,0,0,1,1,1,0,0,0,0,1,40,40,1,1,1,0,0,0,1,1,16,NA,0,0,0,5,8,15,16,18,20,16,15,1,6,3,75,7.5,7.5,19,1,12,1,3,0,1,0,2,1,2,1,3,3,0,2,1,2,3,3,3,0,1,1,2,NA,NA,1,1,3,71,29,29,0,0,0,NA,0,1,1,0,0,0,0.454545454545455,1
5,"6on5rh76",1,0,80,1,50,50,100,30,70,100,45,0.300000011920929,30,1,0,0,NA,NA,1,60,60,NA,5,1,1,"x7h85wfe",0,80,30,22,4,3,9,5,0,0,1,1,1,0,0,0,0,1,40,40,1,1,1,0,0,0,0,1,10,NA,0,2,4,6,8,10,12,14,16,10,14,1,6,3,132,13.1999998092651,13.5,19,0,3,1,3,2,2,1,1,1,3,3,3,2,2,2,2,2,2,3,3,0,0,3,2,0,3,NA,NA,3,78,29,29,1,0.375,30,NA,0,2,0,0,1,0,0.363636363636364,0
5,"6on5rh76",1,1,80,1,5,75,80,75,45,120,36,0.625,62,1,0,0,0,NA,NA,NA,NA,1,5,1,7,"x7h85wfe",0,80,30,22,4,3,9,5,0,0,1,1,1,0,0,0,0,1,40,40,1,1,1,0,0,0,0,1,10,NA,0,2,4,6,8,10,12,14,16,10,14,1,6,3,132,13.1999998092651,13.5,19,0,3,1,3,2,2,1,1,1,3,3,3,2,2,2,2,2,2,3,3,0,0,3,2,0,3,NA,NA,3,78,29,29,1,0.9375,NA,75,0,4,0,0,0,1,0.363636363636364,0
5,"6on5rh76",1,1,80,1,20,20,40,60,100,160,18,0.375,38,1,1,18,NA,NA,NA,NA,NA,NA,5,1,3,"x7h85wfe",0,80,30,22,4,3,9,5,0,0,1,1,1,0,0,0,0,1,40,40,1,1,1,0,0,0,0,1,10,NA,0,2,4,6,8,10,12,14,16,10,14,1,6,3,132,13.1999998092651,13.5,19,0,3,1,3,2,2,1,1,1,3,3,3,2,2,2,2,2,2,3,3,0,0,3,2,0,3,NA,NA,3,78,29,29,1,0.75,NA,60,0,4,0,0,0,1,0.363636363636364,0
5,"6on5rh76",1,1,80,1,10,70,80,70,50,120,36,0.583333313465118,58,1,0,0,NA,NA,NA,NA,NA,NA,2,1,6,"x7h85wfe",0,80,30,22,4,3,9,5,0,0,1,1,1,0,0,0,0,1,40,40,1,1,1,0,0,0,0,1,10,NA,0,2,4,6,8,10,12,14,16,10,14,1,6,3,132,13.1999998092651,13.5,19,0,3,1,3,2,2,1,1,1,3,3,3,2,2,2,2,2,2,3,3,0,0,3,2,0,3,NA,NA,3,78,29,29,1,0.875,NA,70,0,4,0,0,0,1,0.363636363636364,0
5,"6on5rh76",1,1,80,1,20,40,60,60,80,140,27,0.428571432828903,43,1,0,0,NA,NA,NA,NA,NA,NA,6,1,2,"x7h85wfe",0,80,30,22,4,3,9,5,0,0,1,1,1,0,0,0,0,1,40,40,1,1,1,0,0,0,0,1,10,NA,0,2,4,6,8,10,12,14,16,10,14,1,6,3,132,13.1999998092651,13.5,19,0,3,1,3,2,2,1,1,1,3,3,3,2,2,2,2,2,2,3,3,0,0,3,2,0,3,NA,NA,3,78,29,29,1,0.75,NA,60,0,4,0,0,0,1,0.363636363636364,0
5,"6on5rh76",1,1,80,1,10,60,70,70,60,130,32,0.538461565971375,54,0,0,0,NA,NA,NA,NA,NA,NA,5,1,5,"x7h85wfe",0,80,30,22,4,3,9,5,0,0,1,1,1,0,0,0,0,1,40,40,1,1,1,0,0,0,0,1,10,NA,0,2,4,6,8,10,12,14,16,10,14,1,6,3,132,13.1999998092651,13.5,19,0,3,1,3,2,2,1,1,1,3,3,3,2,2,2,2,2,2,3,3,0,0,3,2,0,3,NA,NA,3,78,29,29,1,0.875,NA,70,0,4,0,0,0,1,0.363636363636364,0
5,"6on5rh76",1,1,80,1,20,30,50,60,90,150,22,0.400000005960464,40,1,0,0,NA,NA,NA,NA,NA,NA,6,1,4,"x7h85wfe",0,80,30,22,4,3,9,5,0,0,1,1,1,0,0,0,0,1,40,40,1,1,1,0,0,0,0,1,10,NA,0,2,4,6,8,10,12,14,16,10,14,1,6,3,132,13.1999998092651,13.5,19,0,3,1,3,2,2,1,1,1,3,3,3,2,2,2,2,2,2,3,3,0,0,3,2,0,3,NA,NA,3,78,29,29,1,0.75,NA,60,0,4,0,0,0,1,0.363636363636364,0
1,"704bhzdm",1,1,80,1,40,110,150,40,10,50,68,0.800000011920929,80,0,1,68,NA,NA,NA,NA,NA,NA,1,1,6,"zlc5ls51",0,100,30,54,10,10,10,6,0,0,1,1,1,0,0,1,1,1,40,60,1,1,0,0,0,0,0,1,4,10,0,2,3,4,5,6,7,20,10,16,10,0,2,1,249,24.8999996185303,25,22,1,9,1,2,3,2,2,1,3,1,0,0,4,3,3,2,2,2,0,0,3,2,1,1,0,0,NA,NA,3,85,1,1,1,0.5,NA,40,0,4,0,0,0,1,0.181818181818182,0
1,"704bhzdm",1,1,80,1,80,100,180,0,20,20,81,0,0,0,0,0,NA,NA,0,20,100,NA,1,1,1,"zlc5ls51",0,100,30,54,10,10,10,6,0,0,1,1,1,0,0,1,1,1,40,60,1,1,0,0,0,0,0,1,4,10,0,2,3,4,5,6,7,20,10,16,10,0,2,1,249,24.8999996185303,25,22,1,9,1,2,3,2,2,1,3,1,0,0,4,3,3,2,2,2,0,0,3,2,1,1,0,0,NA,NA,3,85,1,1,1,0,NA,0,0,3,0,1,0,0,0.181818181818182,0
1,"704bhzdm",1,1,80,1,50,120,170,30,0,30,76,1,100,0,1,76,NA,NA,NA,NA,NA,NA,1,1,2,"zlc5ls51",0,100,30,54,10,10,10,6,0,0,1,1,1,0,0,1,1,1,40,60,1,1,0,0,0,0,0,1,4,10,0,2,3,4,5,6,7,20,10,16,10,0,2,1,249,24.8999996185303,25,22,1,9,1,2,3,2,2,1,3,1,0,0,4,3,3,2,2,2,0,0,3,2,1,1,0,0,NA,NA,3,85,1,1,1,0.375,NA,30,0,4,0,0,0,1,0.181818181818182,0
1,"704bhzdm",1,1,80,1,45,100,145,35,20,55,65,0.636363625526428,64,1,1,65,NA,NA,NA,NA,NA,NA,7,1,5,"zlc5ls51",0,100,30,54,10,10,10,6,0,0,1,1,1,0,0,1,1,1,40,60,1,1,0,0,0,0,0,1,4,10,0,2,3,4,5,6,7,20,10,16,10,0,2,1,249,24.8999996185303,25,22,1,9,1,2,3,2,2,1,3,1,0,0,4,3,3,2,2,2,0,0,3,2,1,1,0,0,NA,NA,3,85,1,1,1,0.4375,NA,35,0,4,0,0,0,1,0.181818181818182,0
1,"704bhzdm",1,1,80,1,30,80,110,50,40,90,50,0.555555582046509,56,0,1,50,65,NA,NA,NA,NA,1,1,1,7,"zlc5ls51",0,100,30,54,10,10,10,6,0,0,1,1,1,0,0,1,1,1,40,60,1,1,0,0,0,0,0,1,4,10,0,2,3,4,5,6,7,20,10,16,10,0,2,1,249,24.8999996185303,25,22,1,9,1,2,3,2,2,1,3,1,0,0,4,3,3,2,2,2,0,0,3,2,1,1,0,0,NA,NA,3,85,1,1,1,0.625,NA,50,0,4,0,0,0,1,0.181818181818182,0
1,"704bhzdm",1,1,80,1,50,100,150,30,20,50,68,0.600000023841858,60,0,1,68,NA,NA,NA,NA,NA,NA,4,1,3,"zlc5ls51",0,100,30,54,10,10,10,6,0,0,1,1,1,0,0,1,1,1,40,60,1,1,0,0,0,0,0,1,4,10,0,2,3,4,5,6,7,20,10,16,10,0,2,1,249,24.8999996185303,25,22,1,9,1,2,3,2,2,1,3,1,0,0,4,3,3,2,2,2,0,0,3,2,1,1,0,0,NA,NA,3,85,1,1,1,0.375,NA,30,0,4,0,0,0,1,0.181818181818182,0
1,"704bhzdm",1,1,80,1,50,80,130,30,40,70,58,0.428571432828903,43,1,0,0,NA,NA,NA,NA,NA,NA,2,1,4,"zlc5ls51",0,100,30,54,10,10,10,6,0,0,1,1,1,0,0,1,1,1,40,60,1,1,0,0,0,0,0,1,4,10,0,2,3,4,5,6,7,20,10,16,10,0,2,1,249,24.8999996185303,25,22,1,9,1,2,3,2,2,1,3,1,0,0,4,3,3,2,2,2,0,0,3,2,1,1,0,0,NA,NA,3,85,1,1,1,0.375,NA,30,0,4,0,0,0,1,0.181818181818182,0
6,"7wwnk3ua",1,1,80,1,0,70,70,80,50,130,32,0.615384638309479,62,1,1,32,NA,NA,1,60,60,NA,3,1,1,"e4y6khl6",0,80,30,34,1,1,3,4,0,0,1,1,1,0,0,0,1,1,40,40,1,1,1,1,0,0,0,1,8,0,0,0,0,0,0,5,10,10,20,6,0,0,2,1,144,14.3999996185303,14.5,22,0,8,1,2,0,1,1,1,1,2,1,2,2,1,1,2,2,1,2,2,1,1,2,2,1,2,NA,NA,1,92,15,15,1,1,NA,80,0,4,0,0,0,1,0.727272727272727,0
6,"7wwnk3ua",1,1,80,1,0,80,80,80,40,120,36,0.666666686534882,67,0,0,0,NA,NA,NA,NA,NA,NA,6,1,5,"e4y6khl6",0,80,30,34,1,1,3,4,0,0,1,1,1,0,0,0,1,1,40,40,1,1,1,1,0,0,0,1,8,0,0,0,0,0,0,5,10,10,20,6,0,0,2,1,144,14.3999996185303,14.5,22,0,8,1,2,0,1,1,1,1,2,1,2,2,1,1,2,2,1,2,2,1,1,2,2,1,2,NA,NA,1,92,15,15,1,1,NA,80,0,4,0,0,0,1,0.727272727272727,0
6,"7wwnk3ua",1,1,80,1,0,60,60,80,60,140,27,0.571428596973419,57,0,1,27,NA,NA,NA,NA,NA,NA,6,1,6,"e4y6khl6",0,80,30,34,1,1,3,4,0,0,1,1,1,0,0,0,1,1,40,40,1,1,1,1,0,0,0,1,8,0,0,0,0,0,0,5,10,10,20,6,0,0,2,1,144,14.3999996185303,14.5,22,0,8,1,2,0,1,1,1,1,2,1,2,2,1,1,2,2,1,2,2,1,1,2,2,1,2,NA,NA,1,92,15,15,1,1,NA,80,0,4,0,0,0,1,0.727272727272727,0
6,"7wwnk3ua",1,1,80,1,0,50,50,80,70,150,22,0.533333361148834,53,0,1,22,NA,NA,NA,NA,NA,NA,5,1,4,"e4y6khl6",0,80,30,34,1,1,3,4,0,0,1,1,1,0,0,0,1,1,40,40,1,1,1,1,0,0,0,1,8,0,0,0,0,0,0,5,10,10,20,6,0,0,2,1,144,14.3999996185303,14.5,22,0,8,1,2,0,1,1,1,1,2,1,2,2,1,1,2,2,1,2,2,1,1,2,2,1,2,NA,NA,1,92,15,15,1,1,NA,80,0,4,0,0,0,1,0.727272727272727,0
6,"7wwnk3ua",1,1,80,1,0,80,80,80,40,120,36,0.666666686534882,67,0,0,0,NA,NA,NA,NA,NA,NA,5,1,2,"e4y6khl6",0,80,30,34,1,1,3,4,0,0,1,1,1,0,0,0,1,1,40,40,1,1,1,1,0,0,0,1,8,0,0,0,0,0,0,5,10,10,20,6,0,0,2,1,144,14.3999996185303,14.5,22,0,8,1,2,0,1,1,1,1,2,1,2,2,1,1,2,2,1,2,2,1,1,2,2,1,2,NA,NA,1,92,15,15,1,1,NA,80,0,4,0,0,0,1,0.727272727272727,0
6,"7wwnk3ua",1,0,80,1,40,40,80,40,80,120,36,0.333333343267441,33,1,0,0,0,NA,NA,NA,NA,1,4,1,7,"e4y6khl6",0,80,30,34,1,1,3,4,0,0,1,1,1,0,0,0,1,1,40,40,1,1,1,1,0,0,0,1,8,0,0,0,0,0,0,5,10,10,20,6,0,0,2,1,144,14.3999996185303,14.5,22,0,8,1,2,0,1,1,1,1,2,1,2,2,1,1,2,2,1,2,2,1,1,2,2,1,2,NA,NA,1,92,15,15,1,0.5,40,NA,0,2,0,0,1,0,0.727272727272727,0
6,"7wwnk3ua",1,1,80,1,30,30,60,50,90,140,27,0.357142865657806,36,1,0,0,NA,NA,NA,NA,NA,NA,7,1,3,"e4y6khl6",0,80,30,34,1,1,3,4,0,0,1,1,1,0,0,0,1,1,40,40,1,1,1,1,0,0,0,1,8,0,0,0,0,0,0,5,10,10,20,6,0,0,2,1,144,14.3999996185303,14.5,22,0,8,1,2,0,1,1,1,1,2,1,2,2,1,1,2,2,1,2,2,1,1,2,2,1,2,NA,NA,1,92,15,15,1,0.625,NA,50,0,4,0,0,0,1,0.727272727272727,0
14,"7xkytz0z",2,0,120,1,90,10,100,30,70,100,45,0.300000011920929,30,1,0,0,NA,NA,0,50,30,NA,7,1,1,"zlc5ls51",0,80,-10,20,5,3,6,1,0,1,1,1,1,0,0,0,0,0,40,40,1,1,0,0,0,0,1,1,8,NA,0,3,7,10,13,17,20,23,26,8,12,1,2,1,90,9,9,22,1,12,1,3,4,4,4,4,4,4,4,4,4,1,0,0,0,3,3,3,4,0,2,0,NA,NA,3,2,3,99,1,1,1,0.25,30,NA,0,2,0,0,1,0,0.454545454545455,1
14,"7xkytz0z",2,0,120,1,70,10,80,50,70,120,36,0.416666656732559,42,1,0,0,NA,NA,NA,NA,NA,NA,5,1,2,"zlc5ls51",0,80,-10,20,5,3,6,1,0,1,1,1,1,0,0,0,0,0,40,40,1,1,0,0,0,0,1,1,8,NA,0,3,7,10,13,17,20,23,26,8,12,1,2,1,90,9,9,22,1,12,1,3,4,4,4,4,4,4,4,4,4,1,0,0,0,3,3,3,4,0,2,0,NA,NA,3,2,3,99,1,1,1,0.416666666666667,50,NA,0,2,0,0,1,0,0.454545454545455,1
14,"7xkytz0z",2,0,120,1,40,10,50,80,70,150,22,0.533333361148834,53,1,1,22,NA,NA,NA,NA,NA,NA,5,1,3,"zlc5ls51",0,80,-10,20,5,3,6,1,0,1,1,1,1,0,0,0,0,0,40,40,1,1,0,0,0,0,1,1,8,NA,0,3,7,10,13,17,20,23,26,8,12,1,2,1,90,9,9,22,1,12,1,3,4,4,4,4,4,4,4,4,4,1,0,0,0,3,3,3,4,0,2,0,NA,NA,3,2,3,99,1,1,1,0.666666666666667,80,NA,0,2,0,0,1,0,0.454545454545455,1
14,"7xkytz0z",2,0,120,1,50,50,100,70,30,100,45,0.699999988079071,70,1,0,0,NA,NA,NA,NA,NA,NA,3,1,5,"zlc5ls51",0,80,-10,20,5,3,6,1,0,1,1,1,1,0,0,0,0,0,40,40,1,1,0,0,0,0,1,1,8,NA,0,3,7,10,13,17,20,23,26,8,12,1,2,1,90,9,9,22,1,12,1,3,4,4,4,4,4,4,4,4,4,1,0,0,0,3,3,3,4,0,2,0,NA,NA,3,2,3,99,1,1,1,0.583333333333333,70,NA,0,2,0,0,1,0,0.454545454545455,1
14,"7xkytz0z",2,0,120,0,35,60,95,85,20,105,43,0.809523820877075,81,0,NA,35,NA,NA,NA,NA,NA,NA,3,0,4,"zlc5ls51",0,80,-10,20,5,3,6,1,0,1,1,1,1,0,0,0,0,0,40,40,1,1,0,0,0,0,1,1,8,NA,0,3,7,10,13,17,20,23,26,8,12,1,2,1,90,9,9,22,1,12,1,3,4,4,4,4,4,4,4,4,4,1,0,0,0,3,3,3,4,0,2,0,NA,NA,3,2,3,99,1,1,0,0.708333333333333,85,NA,0,2,0,0,1,0,0.454545454545455,1
14,"7xkytz0z",2,0,120,0,70,80,150,50,0,50,68,1,100,0,NA,70,NA,NA,NA,NA,NA,NA,5,0,6,"zlc5ls51",0,80,-10,20,5,3,6,1,0,1,1,1,1,0,0,0,0,0,40,40,1,1,0,0,0,0,1,1,8,NA,0,3,7,10,13,17,20,23,26,8,12,1,2,1,90,9,9,22,1,12,1,3,4,4,4,4,4,4,4,4,4,1,0,0,0,3,3,3,4,0,2,0,NA,NA,3,2,3,99,1,1,0,0.416666666666667,50,NA,0,2,0,0,1,0,0.454545454545455,1
14,"7xkytz0z",2,0,120,1,80,30,110,40,50,90,50,0.444444447755814,44,1,0,0,0,NA,NA,NA,NA,2,1,1,7,"zlc5ls51",0,80,-10,20,5,3,6,1,0,1,1,1,1,0,0,0,0,0,40,40,1,1,0,0,0,0,1,1,8,NA,0,3,7,10,13,17,20,23,26,8,12,1,2,1,90,9,9,22,1,12,1,3,4,4,4,4,4,4,4,4,4,1,0,0,0,3,3,3,4,0,2,0,NA,NA,3,2,3,99,1,1,1,0.333333333333333,40,NA,0,2,0,0,1,0,0.454545454545455,1
1,"8fm0r8vg",1,0,80,0,60,90,150,20,30,50,68,0.400000005960464,40,0,NA,60,NA,NA,NA,NA,NA,NA,2,0,4,"a9g7r98j",0,80,-10,39,6,5,9,6,0,0,0,0,0,1,1,1,1,1,40,40,1,1,0,0,0,0,1,1,2,1,0,0,0,0,1,2,3,4,5,8,1,0,2,1,109,10.8999996185303,11,24,1,6,1,2,1,1,2,0,1,2,2,3,3,3,1,1,1,1,3,2,1,1,2,2,1,1,NA,NA,2,106,8,8,0,0.25,20,NA,0,2,0,0,1,0,0.454545454545455,0
1,"8fm0r8vg",1,1,80,1,0,50,50,80,70,150,22,0.533333361148834,53,1,0,0,NA,NA,NA,NA,NA,NA,4,1,3,"a9g7r98j",0,80,-10,39,6,5,9,6,0,0,0,0,0,1,1,1,1,1,40,40,1,1,0,0,0,0,1,1,2,1,0,0,0,0,1,2,3,4,5,8,1,0,2,1,109,10.8999996185303,11,24,1,6,1,2,1,1,2,0,1,2,2,3,3,3,1,1,1,1,3,2,1,1,2,2,1,1,NA,NA,2,106,8,8,1,1,NA,80,0,4,0,0,0,1,0.454545454545455,0
1,"8fm0r8vg",1,1,80,1,40,0,40,40,120,160,18,0.25,25,1,0,0,NA,NA,NA,NA,NA,NA,1,1,2,"a9g7r98j",0,80,-10,39,6,5,9,6,0,0,0,0,0,1,1,1,1,1,40,40,1,1,0,0,0,0,1,1,2,1,0,0,0,0,1,2,3,4,5,8,1,0,2,1,109,10.8999996185303,11,24,1,6,1,2,1,1,2,0,1,2,2,3,3,3,1,1,1,1,3,2,1,1,2,2,1,1,NA,NA,2,106,8,8,1,0.5,NA,40,0,4,0,0,0,1,0.454545454545455,0
1,"8fm0r8vg",1,1,80,1,0,80,80,80,40,120,36,0.666666686534882,67,1,1,36,0,NA,NA,NA,NA,1,1,1,7,"a9g7r98j",0,80,-10,39,6,5,9,6,0,0,0,0,0,1,1,1,1,1,40,40,1,1,0,0,0,0,1,1,2,1,0,0,0,0,1,2,3,4,5,8,1,0,2,1,109,10.8999996185303,11,24,1,6,1,2,1,1,2,0,1,2,2,3,3,3,1,1,1,1,3,2,1,1,2,2,1,1,NA,NA,2,106,8,8,1,1,NA,80,0,4,0,0,0,1,0.454545454545455,0
1,"8fm0r8vg",1,0,80,1,50,0,50,30,120,150,22,0.200000002980232,20,1,0,0,NA,NA,NA,NA,NA,NA,7,1,5,"a9g7r98j",0,80,-10,39,6,5,9,6,0,0,0,0,0,1,1,1,1,1,40,40,1,1,0,0,0,0,1,1,2,1,0,0,0,0,1,2,3,4,5,8,1,0,2,1,109,10.8999996185303,11,24,1,6,1,2,1,1,2,0,1,2,2,3,3,3,1,1,1,1,3,2,1,1,2,2,1,1,NA,NA,2,106,8,8,1,0.375,30,NA,0,2,0,0,1,0,0.454545454545455,0
1,"8fm0r8vg",1,1,80,1,10,51,61,70,69,139,27,0.503597140312195,50,1,0,0,NA,NA,NA,NA,NA,NA,1,1,6,"a9g7r98j",0,80,-10,39,6,5,9,6,0,0,0,0,0,1,1,1,1,1,40,40,1,1,0,0,0,0,1,1,2,1,0,0,0,0,1,2,3,4,5,8,1,0,2,1,109,10.8999996185303,11,24,1,6,1,2,1,1,2,0,1,2,2,3,3,3,1,1,1,1,3,2,1,1,2,2,1,1,NA,NA,2,106,8,8,1,0.875,NA,70,0,4,0,0,0,1,0.454545454545455,0
1,"8fm0r8vg",1,1,80,1,30,120,150,50,0,50,68,1,100,0,1,68,NA,NA,1,80,40,NA,1,1,1,"a9g7r98j",0,80,-10,39,6,5,9,6,0,0,0,0,0,1,1,1,1,1,40,40,1,1,0,0,0,0,1,1,2,1,0,0,0,0,1,2,3,4,5,8,1,0,2,1,109,10.8999996185303,11,24,1,6,1,2,1,1,2,0,1,2,2,3,3,3,1,1,1,1,3,2,1,1,2,2,1,1,NA,NA,2,106,8,8,1,0.625,NA,50,0,4,0,0,0,1,0.454545454545455,0
7,"8tduwqm5",1,0,80,1,60,0,60,20,120,140,27,0.142857149243355,14,1,0,0,NA,NA,NA,NA,NA,NA,7,1,6,"a9g7r98j",0,80,30,26,9,10,10,5,0,0,0,0,1,1,1,1,0,0,40,40,1,1,1,1,0,0,0,1,10,NA,0,3,6,9,14,23,23,23,24,10,20,1,2,1,176,17.6000003814697,18,20,1,12,1,3,1,3,3,0,4,4,3,3,3,3,0,0,0,0,3,3,1,0,4,0,3,4,NA,NA,3,113,8,8,1,0.25,20,NA,0,2,0,0,1,0,0.272727272727273,1
7,"8tduwqm5",1,0,80,1,80,80,160,0,40,40,72,0,0,1,0,0,NA,NA,0,0,120,NA,7,1,1,"a9g7r98j",0,80,30,26,9,10,10,5,0,0,0,0,1,1,1,1,0,0,40,40,1,1,1,1,0,0,0,1,10,NA,0,3,6,9,14,23,23,23,24,10,20,1,2,1,176,17.6000003814697,18,20,1,12,1,3,1,3,3,0,4,4,3,3,3,3,0,0,0,0,3,3,1,0,4,0,3,4,NA,NA,3,113,8,8,1,0,0,NA,0,1,1,0,0,0,0.272727272727273,1
7,"8tduwqm5",1,1,80,1,40,60,100,40,60,100,45,0.400000005960464,40,0,0,0,NA,NA,NA,NA,NA,NA,7,1,2,"a9g7r98j",0,80,30,26,9,10,10,5,0,0,0,0,1,1,1,1,0,0,40,40,1,1,1,1,0,0,0,1,10,NA,0,3,6,9,14,23,23,23,24,10,20,1,2,1,176,17.6000003814697,18,20,1,12,1,3,1,3,3,0,4,4,3,3,3,3,0,0,0,0,3,3,1,0,4,0,3,4,NA,NA,3,113,8,8,1,0.5,NA,40,0,4,0,0,0,1,0.272727272727273,1
7,"8tduwqm5",1,0,80,0,40,100,140,40,20,60,63,0.666666686534882,67,0,NA,40,NA,NA,NA,NA,NA,NA,1,0,5,"a9g7r98j",0,80,30,26,9,10,10,5,0,0,0,0,1,1,1,1,0,0,40,40,1,1,1,1,0,0,0,1,10,NA,0,3,6,9,14,23,23,23,24,10,20,1,2,1,176,17.6000003814697,18,20,1,12,1,3,1,3,3,0,4,4,3,3,3,3,0,0,0,0,3,3,1,0,4,0,3,4,NA,NA,3,113,8,8,0,0.5,40,NA,0,2,0,0,1,0,0.272727272727273,1
7,"8tduwqm5",1,0,80,1,60,20,80,20,100,120,36,0.16666667163372,17,1,0,0,NA,NA,NA,NA,NA,NA,7,1,4,"a9g7r98j",0,80,30,26,9,10,10,5,0,0,0,0,1,1,1,1,0,0,40,40,1,1,1,1,0,0,0,1,10,NA,0,3,6,9,14,23,23,23,24,10,20,1,2,1,176,17.6000003814697,18,20,1,12,1,3,1,3,3,0,4,4,3,3,3,3,0,0,0,0,3,3,1,0,4,0,3,4,NA,NA,3,113,8,8,1,0.25,20,NA,0,2,0,0,1,0,0.272727272727273,1
7,"8tduwqm5",1,1,80,1,40,60,100,40,60,100,45,0.400000005960464,40,1,1,45,NA,NA,NA,NA,NA,NA,6,1,3,"a9g7r98j",0,80,30,26,9,10,10,5,0,0,0,0,1,1,1,1,0,0,40,40,1,1,1,1,0,0,0,1,10,NA,0,3,6,9,14,23,23,23,24,10,20,1,2,1,176,17.6000003814697,18,20,1,12,1,3,1,3,3,0,4,4,3,3,3,3,0,0,0,0,3,3,1,0,4,0,3,4,NA,NA,3,113,8,8,1,0.5,NA,40,0,4,0,0,0,1,0.272727272727273,1
7,"8tduwqm5",1,0,80,1,60,49,109,20,71,91,49,0.219780221581459,22,1,0,0,40,NA,NA,NA,NA,1,7,1,7,"a9g7r98j",0,80,30,26,9,10,10,5,0,0,0,0,1,1,1,1,0,0,40,40,1,1,1,1,0,0,0,1,10,NA,0,3,6,9,14,23,23,23,24,10,20,1,2,1,176,17.6000003814697,18,20,1,12,1,3,1,3,3,0,4,4,3,3,3,3,0,0,0,0,3,3,1,0,4,0,3,4,NA,NA,3,113,8,8,1,0.25,20,NA,0,2,0,0,1,0,0.272727272727273,1
12,"ahb824la",2,1,120,1,80,30,110,40,50,90,50,0.444444447755814,44,0,0,0,NA,NA,NA,NA,NA,NA,3,1,3,"zlc5ls51",0,78,30,12,6,8,7,4,1,1,1,1,1,0,0,0,0,0,38,40,1,1,1,0,0,0,0,1,16,NA,0,2,6,10,16,20,24,28,32,16,18,1,2,1,120,12,12,23,0,13,0,3,0,3,1,0,0,0,0,3,3,1,0,3,3,3,3,3,0,1,3,3,NA,NA,0,3,3,120,1,1,1,0.333333333333333,NA,40,0,4,0,0,0,1,0.363636363636364,0
12,"ahb824la",2,1,120,1,50,80,130,70,0,70,58,1,100,1,1,58,NA,NA,NA,NA,NA,NA,4,1,2,"zlc5ls51",0,78,30,12,6,8,7,4,1,1,1,1,1,0,0,0,0,0,38,40,1,1,1,0,0,0,0,1,16,NA,0,2,6,10,16,20,24,28,32,16,18,1,2,1,120,12,12,23,0,13,0,3,0,3,1,0,0,0,0,3,3,1,0,3,3,3,3,3,0,1,3,3,NA,NA,0,3,3,120,1,1,1,0.583333333333333,NA,70,0,4,0,0,0,1,0.363636363636364,0
12,"ahb824la",2,1,120,1,60,5,65,60,75,135,29,0.444444447755814,44,1,1,29,0,NA,NA,NA,NA,2,4,1,7,"zlc5ls51",0,78,30,12,6,8,7,4,1,1,1,1,1,0,0,0,0,0,38,40,1,1,1,0,0,0,0,1,16,NA,0,2,6,10,16,20,24,28,32,16,18,1,2,1,120,12,12,23,0,13,0,3,0,3,1,0,0,0,0,3,3,1,0,3,3,3,3,3,0,1,3,3,NA,NA,0,3,3,120,1,1,1,0.5,NA,60,0,4,0,0,0,1,0.363636363636364,0
12,"ahb824la",2,1,120,1,70,10,80,50,70,120,36,0.416666656732559,42,1,0,0,NA,NA,NA,NA,NA,NA,7,1,6,"zlc5ls51",0,78,30,12,6,8,7,4,1,1,1,1,1,0,0,0,0,0,38,40,1,1,1,0,0,0,0,1,16,NA,0,2,6,10,16,20,24,28,32,16,18,1,2,1,120,12,12,23,0,13,0,3,0,3,1,0,0,0,0,3,3,1,0,3,3,3,3,3,0,1,3,3,NA,NA,0,3,3,120,1,1,1,0.416666666666667,NA,50,0,4,0,0,0,1,0.363636363636364,0
12,"ahb824la",2,0,120,0,120,80,200,0,0,0,90,0.5,50,0,NA,120,NA,NA,NA,NA,NA,NA,1,0,4,"zlc5ls51",0,78,30,12,6,8,7,4,1,1,1,1,1,0,0,0,0,0,38,40,1,1,1,0,0,0,0,1,16,NA,0,2,6,10,16,20,24,28,32,16,18,1,2,1,120,12,12,23,0,13,0,3,0,3,1,0,0,0,0,3,3,1,0,3,3,3,3,3,0,1,3,3,NA,NA,0,3,3,120,1,1,0,0,0,NA,1,1,1,0,0,0,0.363636363636364,0
12,"ahb824la",2,1,120,1,0,20,20,120,60,180,9,0.666666686534882,67,1,1,9,NA,NA,1,80,0,NA,5,1,1,"zlc5ls51",0,78,30,12,6,8,7,4,1,1,1,1,1,0,0,0,0,0,38,40,1,1,1,0,0,0,0,1,16,NA,0,2,6,10,16,20,24,28,32,16,18,1,2,1,120,12,12,23,0,13,0,3,0,3,1,0,0,0,0,3,3,1,0,3,3,3,3,3,0,1,3,3,NA,NA,0,3,3,120,1,1,1,1,NA,120,0,4,0,0,0,1,0.363636363636364,0
12,"ahb824la",2,1,120,1,100,45,145,20,35,55,65,0.363636374473572,36,1,0,0,NA,NA,NA,NA,NA,NA,7,1,5,"zlc5ls51",0,78,30,12,6,8,7,4,1,1,1,1,1,0,0,0,0,0,38,40,1,1,1,0,0,0,0,1,16,NA,0,2,6,10,16,20,24,28,32,16,18,1,2,1,120,12,12,23,0,13,0,3,0,3,1,0,0,0,0,3,3,1,0,3,3,3,3,3,0,1,3,3,NA,NA,0,3,3,120,1,1,1,0.166666666666667,NA,20,0,4,0,0,0,1,0.363636363636364,0
11,"ailzpn3f",2,0,120,0,90,60,150,30,20,50,68,0.600000023841858,60,0,NA,90,NA,NA,NA,NA,NA,NA,2,0,4,"a9g7r98j",0,80,30,16,7,4,10,6,1,0,1,0,1,0,1,0,1,0,40,40,1,1,0,0,0,0,0,1,4,NA,0,2,4,6,8,8,8,8,8,4,4,1,2,1,226,22.6000003814697,23,23,0,13,0,3,3,3,3,3,3,3,3,3,3,0,0,0,0,3,3,3,3,1,2,1,NA,NA,2,3,3,127,8,8,0,0.25,30,NA,0,2,0,0,1,0,0.454545454545455,0
11,"ailzpn3f",2,0,120,0,70,80,150,50,0,50,68,1,100,0,NA,70,NA,NA,NA,NA,NA,NA,2,0,2,"a9g7r98j",0,80,30,16,7,4,10,6,1,0,1,0,1,0,1,0,1,0,40,40,1,1,0,0,0,0,0,1,4,NA,0,2,4,6,8,8,8,8,8,4,4,1,2,1,226,22.6000003814697,23,23,0,13,0,3,3,3,3,3,3,3,3,3,3,0,0,0,0,3,3,3,3,1,2,1,NA,NA,2,3,3,127,8,8,0,0.416666666666667,50,NA,0,2,0,0,1,0,0.454545454545455,0
11,"ailzpn3f",2,0,120,0,100,45,145,20,35,55,65,0.363636374473572,36,0,NA,100,100,NA,NA,NA,NA,2,5,0,7,"a9g7r98j",0,80,30,16,7,4,10,6,1,0,1,0,1,0,1,0,1,0,40,40,1,1,0,0,0,0,0,1,4,NA,0,2,4,6,8,8,8,8,8,4,4,1,2,1,226,22.6000003814697,23,23,0,13,0,3,3,3,3,3,3,3,3,3,3,0,0,0,0,3,3,3,3,1,2,1,NA,NA,2,3,3,127,8,8,0,0.166666666666667,20,NA,0,2,0,0,1,0,0.454545454545455,0
11,"ailzpn3f",2,0,120,1,60,20,80,60,60,120,36,0.5,50,1,1,36,NA,NA,1,40,40,NA,4,1,1,"a9g7r98j",0,80,30,16,7,4,10,6,1,0,1,0,1,0,1,0,1,0,40,40,1,1,0,0,0,0,0,1,4,NA,0,2,4,6,8,8,8,8,8,4,4,1,2,1,226,22.6000003814697,23,23,0,13,0,3,3,3,3,3,3,3,3,3,3,0,0,0,0,3,3,3,3,1,2,1,NA,NA,2,3,3,127,8,8,1,0.5,60,NA,0,2,0,0,1,0,0.454545454545455,0
11,"ailzpn3f",2,0,120,1,80,1,81,40,79,119,36,0.33613446354866,34,1,0,0,NA,NA,NA,NA,NA,NA,2,1,3,"a9g7r98j",0,80,30,16,7,4,10,6,1,0,1,0,1,0,1,0,1,0,40,40,1,1,0,0,0,0,0,1,4,NA,0,2,4,6,8,8,8,8,8,4,4,1,2,1,226,22.6000003814697,23,23,0,13,0,3,3,3,3,3,3,3,3,3,3,0,0,0,0,3,3,3,3,1,2,1,NA,NA,2,3,3,127,8,8,1,0.333333333333333,40,NA,0,2,0,0,1,0,0.454545454545455,0
11,"ailzpn3f",2,0,120,0,100,40,140,20,40,60,63,0.333333343267441,33,0,NA,100,NA,NA,NA,NA,NA,NA,1,0,5,"a9g7r98j",0,80,30,16,7,4,10,6,1,0,1,0,1,0,1,0,1,0,40,40,1,1,0,0,0,0,0,1,4,NA,0,2,4,6,8,8,8,8,8,4,4,1,2,1,226,22.6000003814697,23,23,0,13,0,3,3,3,3,3,3,3,3,3,3,0,0,0,0,3,3,3,3,1,2,1,NA,NA,2,3,3,127,8,8,0,0.166666666666667,20,NA,0,2,0,0,1,0,0.454545454545455,0
11,"ailzpn3f",2,0,120,1,110,0,110,10,80,90,50,0.111111111938953,11,1,0,0,NA,NA,NA,NA,NA,NA,6,1,6,"a9g7r98j",0,80,30,16,7,4,10,6,1,0,1,0,1,0,1,0,1,0,40,40,1,1,0,0,0,0,0,1,4,NA,0,2,4,6,8,8,8,8,8,4,4,1,2,1,226,22.6000003814697,23,23,0,13,0,3,3,3,3,3,3,3,3,3,3,0,0,0,0,3,3,3,3,1,2,1,NA,NA,2,3,3,127,8,8,1,0.0833333333333333,10,NA,0,2,0,0,1,0,0.454545454545455,0
9,"b2k03w9s",2,0,120,0,60,45,105,60,35,95,47,0.631578922271729,63,0,NA,60,NA,NA,NA,NA,NA,NA,5,0,5,"a9g7r98j",0,80,-10,20,7,5,8,5,0,0,1,1,1,0,0,1,0,1,40,40,1,1,1,1,1,1,1,1,8,NA,0,3,6,9,12,15,18,21,24,8,12,1,2,1,150,15,15,23,0,6,1,2,4,3,0,4,4,1,1,3,0,0,4,0,0,3,3,0,4,2,3,4,NA,NA,2,1,0,134,8,8,0,0.5,60,NA,0,2,0,0,1,0,0.454545454545455,0
9,"b2k03w9s",2,0,120,1,60,0,60,60,80,140,27,0.428571432828903,43,1,0,0,NA,NA,NA,NA,NA,NA,5,1,4,"a9g7r98j",0,80,-10,20,7,5,8,5,0,0,1,1,1,0,0,1,0,1,40,40,1,1,1,1,1,1,1,1,8,NA,0,3,6,9,12,15,18,21,24,8,12,1,2,1,150,15,15,23,0,6,1,2,4,3,0,4,4,1,1,3,0,0,4,0,0,3,3,0,4,2,3,4,NA,NA,2,1,0,134,8,8,1,0.5,60,NA,0,2,0,0,1,0,0.454545454545455,0
9,"b2k03w9s",2,1,120,1,60,40,100,60,40,100,45,0.600000023841858,60,1,0,0,NA,NA,NA,NA,NA,NA,6,1,3,"a9g7r98j",0,80,-10,20,7,5,8,5,0,0,1,1,1,0,0,1,0,1,40,40,1,1,1,1,1,1,1,1,8,NA,0,3,6,9,12,15,18,21,24,8,12,1,2,1,150,15,15,23,0,6,1,2,4,3,0,4,4,1,1,3,0,0,4,0,0,3,3,0,4,2,3,4,NA,NA,2,1,0,134,8,8,1,0.5,NA,60,0,4,0,0,0,1,0.454545454545455,0
9,"b2k03w9s",2,1,120,1,0,40,40,120,40,160,18,0.75,75,1,1,18,NA,NA,NA,NA,NA,NA,1,1,2,"a9g7r98j",0,80,-10,20,7,5,8,5,0,0,1,1,1,0,0,1,0,1,40,40,1,1,1,1,1,1,1,1,8,NA,0,3,6,9,12,15,18,21,24,8,12,1,2,1,150,15,15,23,0,6,1,2,4,3,0,4,4,1,1,3,0,0,4,0,0,3,3,0,4,2,3,4,NA,NA,2,1,0,134,8,8,1,1,NA,120,0,4,0,0,0,1,0.454545454545455,0
9,"b2k03w9s",2,0,120,1,120,10,130,0,70,70,58,0,0,1,0,0,NA,NA,1,40,40,NA,2,1,1,"a9g7r98j",0,80,-10,20,7,5,8,5,0,0,1,1,1,0,0,1,0,1,40,40,1,1,1,1,1,1,1,1,8,NA,0,3,6,9,12,15,18,21,24,8,12,1,2,1,150,15,15,23,0,6,1,2,4,3,0,4,4,1,1,3,0,0,4,0,0,3,3,0,4,2,3,4,NA,NA,2,1,0,134,8,8,1,0,0,NA,0,1,1,0,0,0,0.454545454545455,0
9,"b2k03w9s",2,0,120,0,60,30,90,60,50,110,40,0.545454561710358,55,0,NA,60,NA,NA,NA,NA,NA,NA,4,0,6,"a9g7r98j",0,80,-10,20,7,5,8,5,0,0,1,1,1,0,0,1,0,1,40,40,1,1,1,1,1,1,1,1,8,NA,0,3,6,9,12,15,18,21,24,8,12,1,2,1,150,15,15,23,0,6,1,2,4,3,0,4,4,1,1,3,0,0,4,0,0,3,3,0,4,2,3,4,NA,NA,2,1,0,134,8,8,0,0.5,60,NA,0,2,0,0,1,0,0.454545454545455,0
9,"b2k03w9s",2,0,120,0,60,70,130,60,10,70,58,0.857142865657806,86,0,NA,60,60,NA,NA,NA,NA,2,3,0,7,"a9g7r98j",0,80,-10,20,7,5,8,5,0,0,1,1,1,0,0,1,0,1,40,40,1,1,1,1,1,1,1,1,8,NA,0,3,6,9,12,15,18,21,24,8,12,1,2,1,150,15,15,23,0,6,1,2,4,3,0,4,4,1,1,3,0,0,4,0,0,3,3,0,4,2,3,4,NA,NA,2,1,0,134,8,8,0,0.5,60,NA,0,2,0,0,1,0,0.454545454545455,0
13,"bxdlssma",2,1,120,1,50,10,60,70,70,140,27,0.5,50,1,1,27,NA,NA,NA,NA,NA,NA,1,1,3,"x7h85wfe",0,80,0,1,9,8,10,8,0,1,1,1,1,0,0,0,1,1,40,40,1,1,0,0,0,0,0,0,0,15,0,0,0,0,0,0,12,14,15,0,0,0,6,3,135,13.5,13.5,20,1,3,1,3,0,0,2,2,3,2,0,4,4,3,3,3,3,3,3,3,2,1,3,3,NA,NA,0,3,3,141,29,29,1,0.583333333333333,NA,70,0,4,0,0,0,1,0.454545454545455,0
13,"bxdlssma",2,1,120,1,80,40,120,40,40,80,54,0.5,50,1,1,54,NA,NA,NA,NA,NA,NA,2,1,5,"x7h85wfe",0,80,0,1,9,8,10,8,0,1,1,1,1,0,0,0,1,1,40,40,1,1,0,0,0,0,0,0,0,15,0,0,0,0,0,0,12,14,15,0,0,0,6,3,135,13.5,13.5,20,1,3,1,3,0,0,2,2,3,2,0,4,4,3,3,3,3,3,3,3,2,1,3,3,NA,NA,0,3,3,141,29,29,1,0.333333333333333,NA,40,0,4,0,0,0,1,0.454545454545455,0
13,"bxdlssma",2,1,120,1,40,79,119,80,1,81,54,0.987654328346252,99,0,1,54,NA,NA,1,50,30,NA,3,1,1,"x7h85wfe",0,80,0,1,9,8,10,8,0,1,1,1,1,0,0,0,1,1,40,40,1,1,0,0,0,0,0,0,0,15,0,0,0,0,0,0,12,14,15,0,0,0,6,3,135,13.5,13.5,20,1,3,1,3,0,0,2,2,3,2,0,4,4,3,3,3,3,3,3,3,2,1,3,3,NA,NA,0,3,3,141,29,29,1,0.666666666666667,NA,80,0,4,0,0,0,1,0.454545454545455,0
13,"bxdlssma",2,1,120,1,50,70,120,70,10,80,54,0.875,88,1,1,54,54,NA,NA,NA,NA,2,7,1,7,"x7h85wfe",0,80,0,1,9,8,10,8,0,1,1,1,1,0,0,0,1,1,40,40,1,1,0,0,0,0,0,0,0,15,0,0,0,0,0,0,12,14,15,0,0,0,6,3,135,13.5,13.5,20,1,3,1,3,0,0,2,2,3,2,0,4,4,3,3,3,3,3,3,3,2,1,3,3,NA,NA,0,3,3,141,29,29,1,0.583333333333333,NA,70,0,4,0,0,0,1,0.454545454545455,0
13,"bxdlssma",2,1,120,1,40,20,60,80,60,140,27,0.571428596973419,57,1,1,27,NA,NA,NA,NA,NA,NA,6,1,2,"x7h85wfe",0,80,0,1,9,8,10,8,0,1,1,1,1,0,0,0,1,1,40,40,1,1,0,0,0,0,0,0,0,15,0,0,0,0,0,0,12,14,15,0,0,0,6,3,135,13.5,13.5,20,1,3,1,3,0,0,2,2,3,2,0,4,4,3,3,3,3,3,3,3,2,1,3,3,NA,NA,0,3,3,141,29,29,1,0.666666666666667,NA,80,0,4,0,0,0,1,0.454545454545455,0
13,"bxdlssma",2,1,120,1,40,50,90,80,30,110,40,0.727272748947144,73,0,0,0,NA,NA,NA,NA,NA,NA,1,1,6,"x7h85wfe",0,80,0,1,9,8,10,8,0,1,1,1,1,0,0,0,1,1,40,40,1,1,0,0,0,0,0,0,0,15,0,0,0,0,0,0,12,14,15,0,0,0,6,3,135,13.5,13.5,20,1,3,1,3,0,0,2,2,3,2,0,4,4,3,3,3,3,3,3,3,2,1,3,3,NA,NA,0,3,3,141,29,29,1,0.666666666666667,NA,80,0,4,0,0,0,1,0.454545454545455,0
13,"bxdlssma",2,1,120,1,50,0,50,70,80,150,22,0.466666668653488,47,1,0,0,NA,NA,NA,NA,NA,NA,4,1,4,"x7h85wfe",0,80,0,1,9,8,10,8,0,1,1,1,1,0,0,0,1,1,40,40,1,1,0,0,0,0,0,0,0,15,0,0,0,0,0,0,12,14,15,0,0,0,6,3,135,13.5,13.5,20,1,3,1,3,0,0,2,2,3,2,0,4,4,3,3,3,3,3,3,3,2,1,3,3,NA,NA,0,3,3,141,29,29,1,0.583333333333333,NA,70,0,4,0,0,0,1,0.454545454545455,0
9,"ctbqvlt3",2,0,120,1,55,15,70,65,65,130,32,0.5,50,1,0,0,NA,NA,NA,NA,NA,NA,6,1,3,"e4y6khl6",0,78,30,24,8,8,10,6,1,1,1,1,1,0,0,0,0,1,38,40,1,1,1,1,0,0,0,1,10,NA,0,3,6,9,12,15,18,21,24,10,18,1,2,1,132,13.1999998092651,13.5,22,1,3,1,3,3,3,2,3,3,1,1,3,3,3,3,3,3,3,3,3,3,0,2,2,NA,NA,1,2,3,148,15,15,1,0.541666666666667,65,NA,0,2,0,0,1,0,0.363636363636364,0
9,"ctbqvlt3",2,0,120,1,50,15,65,70,65,135,29,0.518518507480621,52,1,1,29,NA,NA,NA,NA,NA,NA,1,1,2,"e4y6khl6",0,78,30,24,8,8,10,6,1,1,1,1,1,0,0,0,0,1,38,40,1,1,1,1,0,0,0,1,10,NA,0,3,6,9,12,15,18,21,24,10,18,1,2,1,132,13.1999998092651,13.5,22,1,3,1,3,3,3,2,3,3,1,1,3,3,3,3,3,3,3,3,3,3,0,2,2,NA,NA,1,2,3,148,15,15,1,0.583333333333333,70,NA,0,2,0,0,1,0,0.363636363636364,0
9,"ctbqvlt3",2,0,120,0,40,70,110,80,10,90,50,0.888888895511627,89,0,NA,40,NA,NA,NA,NA,NA,NA,4,0,6,"e4y6khl6",0,78,30,24,8,8,10,6,1,1,1,1,1,0,0,0,0,1,38,40,1,1,1,1,0,0,0,1,10,NA,0,3,6,9,12,15,18,21,24,10,18,1,2,1,132,13.1999998092651,13.5,22,1,3,1,3,3,3,2,3,3,1,1,3,3,3,3,3,3,3,3,3,3,0,2,2,NA,NA,1,2,3,148,15,15,0,0.666666666666667,80,NA,0,2,0,0,1,0,0.363636363636364,0
9,"ctbqvlt3",2,0,120,0,50,50,100,70,30,100,45,0.699999988079071,70,0,NA,50,0,NA,NA,NA,NA,2,3,0,7,"e4y6khl6",0,78,30,24,8,8,10,6,1,1,1,1,1,0,0,0,0,1,38,40,1,1,1,1,0,0,0,1,10,NA,0,3,6,9,12,15,18,21,24,10,18,1,2,1,132,13.1999998092651,13.5,22,1,3,1,3,3,3,2,3,3,1,1,3,3,3,3,3,3,3,3,3,3,0,2,2,NA,NA,1,2,3,148,15,15,0,0.583333333333333,70,NA,0,2,0,0,1,0,0.363636363636364,0
9,"ctbqvlt3",2,0,120,1,50,10,60,70,70,140,27,0.5,50,1,0,0,NA,NA,NA,NA,NA,NA,5,1,5,"e4y6khl6",0,78,30,24,8,8,10,6,1,1,1,1,1,0,0,0,0,1,38,40,1,1,1,1,0,0,0,1,10,NA,0,3,6,9,12,15,18,21,24,10,18,1,2,1,132,13.1999998092651,13.5,22,1,3,1,3,3,3,2,3,3,1,1,3,3,3,3,3,3,3,3,3,3,0,2,2,NA,NA,1,2,3,148,15,15,1,0.583333333333333,70,NA,0,2,0,0,1,0,0.363636363636364,0
9,"ctbqvlt3",2,0,120,1,50,0,50,70,80,150,22,0.466666668653488,47,1,0,0,NA,NA,NA,NA,NA,NA,5,1,4,"e4y6khl6",0,78,30,24,8,8,10,6,1,1,1,1,1,0,0,0,0,1,38,40,1,1,1,1,0,0,0,1,10,NA,0,3,6,9,12,15,18,21,24,10,18,1,2,1,132,13.1999998092651,13.5,22,1,3,1,3,3,3,2,3,3,1,1,3,3,3,3,3,3,3,3,3,3,0,2,2,NA,NA,1,2,3,148,15,15,1,0.583333333333333,70,NA,0,2,0,0,1,0,0.363636363636364,0
9,"ctbqvlt3",2,1,120,1,40,50,90,80,30,110,40,0.727272748947144,73,0,1,40,NA,NA,0,50,30,NA,2,1,1,"e4y6khl6",0,78,30,24,8,8,10,6,1,1,1,1,1,0,0,0,0,1,38,40,1,1,1,1,0,0,0,1,10,NA,0,3,6,9,12,15,18,21,24,10,18,1,2,1,132,13.1999998092651,13.5,22,1,3,1,3,3,3,2,3,3,1,1,3,3,3,3,3,3,3,3,3,3,0,2,2,NA,NA,1,2,3,148,15,15,1,0.666666666666667,NA,80,0,4,0,0,0,1,0.363636363636364,0
5,"d2c9aai0",1,1,80,1,10,50,60,70,70,140,27,0.5,50,0,1,27,NA,NA,NA,NA,NA,NA,5,1,5,"e4y6khl6",0,80,-10,10,10,9,10,5,0,0,1,1,1,0,0,0,0,0,40,40,1,1,0,0,1,0,1,1,6,NA,0,2,2,8,12,15,16,20,24,6,0,1,2,1,107,10.6999998092651,11,19,0,10,1,3,0,3,2,0,1,4,0,3,3,3,3,3,2,3,3,3,0,1,3,3,0,3,NA,NA,3,155,15,15,1,0.875,NA,70,0,4,0,0,0,1,0.181818181818182,0
5,"d2c9aai0",1,1,80,1,10,90,100,70,30,100,45,0.699999988079071,70,0,1,45,NA,NA,NA,NA,NA,NA,5,1,3,"e4y6khl6",0,80,-10,10,10,9,10,5,0,0,1,1,1,0,0,0,0,0,40,40,1,1,0,0,1,0,1,1,6,NA,0,2,2,8,12,15,16,20,24,6,0,1,2,1,107,10.6999998092651,11,19,0,10,1,3,0,3,2,0,1,4,0,3,3,3,3,3,2,3,3,3,0,1,3,3,0,3,NA,NA,3,155,15,15,1,0.875,NA,70,0,4,0,0,0,1,0.181818181818182,0
5,"d2c9aai0",1,1,80,1,20,30,50,60,90,150,22,0.400000005960464,40,1,1,22,NA,NA,NA,NA,NA,NA,6,1,2,"e4y6khl6",0,80,-10,10,10,9,10,5,0,0,1,1,1,0,0,0,0,0,40,40,1,1,0,0,1,0,1,1,6,NA,0,2,2,8,12,15,16,20,24,6,0,1,2,1,107,10.6999998092651,11,19,0,10,1,3,0,3,2,0,1,4,0,3,3,3,3,3,2,3,3,3,0,1,3,3,0,3,NA,NA,3,155,15,15,1,0.75,NA,60,0,4,0,0,0,1,0.181818181818182,0
5,"d2c9aai0",1,1,80,1,0,50,50,80,70,150,22,0.533333361148834,53,0,0,0,27,NA,NA,NA,NA,1,5,1,7,"e4y6khl6",0,80,-10,10,10,9,10,5,0,0,1,1,1,0,0,0,0,0,40,40,1,1,0,0,1,0,1,1,6,NA,0,2,2,8,12,15,16,20,24,6,0,1,2,1,107,10.6999998092651,11,19,0,10,1,3,0,3,2,0,1,4,0,3,3,3,3,3,2,3,3,3,0,1,3,3,0,3,NA,NA,3,155,15,15,1,1,NA,80,0,4,0,0,0,1,0.181818181818182,0
5,"d2c9aai0",1,1,80,1,20,70,90,60,50,110,40,0.545454561710358,55,1,1,40,NA,NA,1,100,20,NA,5,1,1,"e4y6khl6",0,80,-10,10,10,9,10,5,0,0,1,1,1,0,0,0,0,0,40,40,1,1,0,0,1,0,1,1,6,NA,0,2,2,8,12,15,16,20,24,6,0,1,2,1,107,10.6999998092651,11,19,0,10,1,3,0,3,2,0,1,4,0,3,3,3,3,3,2,3,3,3,0,1,3,3,0,3,NA,NA,3,155,15,15,1,0.75,NA,60,0,4,0,0,0,1,0.181818181818182,0
5,"d2c9aai0",1,0,80,1,40,40,80,40,80,120,36,0.333333343267441,33,1,0,0,NA,NA,NA,NA,NA,NA,6,1,4,"e4y6khl6",0,80,-10,10,10,9,10,5,0,0,1,1,1,0,0,0,0,0,40,40,1,1,0,0,1,0,1,1,6,NA,0,2,2,8,12,15,16,20,24,6,0,1,2,1,107,10.6999998092651,11,19,0,10,1,3,0,3,2,0,1,4,0,3,3,3,3,3,2,3,3,3,0,1,3,3,0,3,NA,NA,3,155,15,15,1,0.5,40,NA,0,2,0,0,1,0,0.181818181818182,0
5,"d2c9aai0",1,1,80,1,10,100,110,70,20,90,50,0.777777791023254,78,0,1,50,NA,NA,NA,NA,NA,NA,2,1,6,"e4y6khl6",0,80,-10,10,10,9,10,5,0,0,1,1,1,0,0,0,0,0,40,40,1,1,0,0,1,0,1,1,6,NA,0,2,2,8,12,15,16,20,24,6,0,1,2,1,107,10.6999998092651,11,19,0,10,1,3,0,3,2,0,1,4,0,3,3,3,3,3,2,3,3,3,0,1,3,3,0,3,NA,NA,3,155,15,15,1,0.875,NA,70,0,4,0,0,0,1,0.181818181818182,0
10,"d5e5jalm",2,0,120,1,100,10,110,20,70,90,50,0.222222223877907,22,1,0,0,NA,NA,NA,NA,NA,NA,2,1,6,"e4y6khl6",0,100,-10,40,2,9,3,2,0,0,1,1,1,0,0,0,1,1,40,60,1,1,0,0,0,0,1,1,0,0,0,0,0,0,0,0,0,0,0,8,0,0,2,1,166,16.6000003814697,17,26,1,12,0,2,3,3,3,3,3,3,0,3,2,0,0,0,1,3,3,2,3,0,1,0,NA,NA,2,2,2,162,15,15,1,0.166666666666667,20,NA,0,2,0,0,1,0,0.727272727272727,1
10,"d5e5jalm",2,0,120,0,100,80,180,20,0,20,81,1,100,0,NA,100,36,NA,NA,NA,NA,2,6,0,7,"e4y6khl6",0,100,-10,40,2,9,3,2,0,0,1,1,1,0,0,0,1,1,40,60,1,1,0,0,0,0,1,1,0,0,0,0,0,0,0,0,0,0,0,8,0,0,2,1,166,16.6000003814697,17,26,1,12,0,2,3,3,3,3,3,3,0,3,2,0,0,0,1,3,3,2,3,0,1,0,NA,NA,2,2,2,162,15,15,0,0.166666666666667,20,NA,0,2,0,0,1,0,0.727272727272727,1
10,"d5e5jalm",2,0,120,1,80,0,80,40,80,120,36,0.333333343267441,33,1,1,36,NA,NA,NA,NA,NA,NA,6,1,5,"e4y6khl6",0,100,-10,40,2,9,3,2,0,0,1,1,1,0,0,0,1,1,40,60,1,1,0,0,0,0,1,1,0,0,0,0,0,0,0,0,0,0,0,8,0,0,2,1,166,16.6000003814697,17,26,1,12,0,2,3,3,3,3,3,3,0,3,2,0,0,0,1,3,3,2,3,0,1,0,NA,NA,2,2,2,162,15,15,1,0.333333333333333,40,NA,0,2,0,0,1,0,0.727272727272727,1
10,"d5e5jalm",2,0,120,1,120,60,180,0,20,20,81,0,0,1,0,0,NA,NA,NA,NA,NA,NA,3,1,2,"e4y6khl6",0,100,-10,40,2,9,3,2,0,0,1,1,1,0,0,0,1,1,40,60,1,1,0,0,0,0,1,1,0,0,0,0,0,0,0,0,0,0,0,8,0,0,2,1,166,16.6000003814697,17,26,1,12,0,2,3,3,3,3,3,3,0,3,2,0,0,0,1,3,3,2,3,0,1,0,NA,NA,2,2,2,162,15,15,1,0,0,NA,0,1,1,0,0,0,0.727272727272727,1
10,"d5e5jalm",2,0,120,1,100,15,115,20,65,85,52,0.235294118523598,24,1,0,0,NA,NA,NA,NA,NA,NA,7,1,4,"e4y6khl6",0,100,-10,40,2,9,3,2,0,0,1,1,1,0,0,0,1,1,40,60,1,1,0,0,0,0,1,1,0,0,0,0,0,0,0,0,0,0,0,8,0,0,2,1,166,16.6000003814697,17,26,1,12,0,2,3,3,3,3,3,3,0,3,2,0,0,0,1,3,3,2,3,0,1,0,NA,NA,2,2,2,162,15,15,1,0.166666666666667,20,NA,0,2,0,0,1,0,0.727272727272727,1
10,"d5e5jalm",2,0,120,0,100,40,140,20,40,60,63,0.333333343267441,33,0,NA,100,NA,NA,NA,NA,NA,NA,4,0,3,"e4y6khl6",0,100,-10,40,2,9,3,2,0,0,1,1,1,0,0,0,1,1,40,60,1,1,0,0,0,0,1,1,0,0,0,0,0,0,0,0,0,0,0,8,0,0,2,1,166,16.6000003814697,17,26,1,12,0,2,3,3,3,3,3,3,0,3,2,0,0,0,1,3,3,2,3,0,1,0,NA,NA,2,2,2,162,15,15,0,0.166666666666667,20,NA,0,2,0,0,1,0,0.727272727272727,1
10,"d5e5jalm",2,0,120,0,120,70,190,0,10,10,86,0,0,0,NA,120,NA,NA,0,40,40,NA,6,0,1,"e4y6khl6",0,100,-10,40,2,9,3,2,0,0,1,1,1,0,0,0,1,1,40,60,1,1,0,0,0,0,1,1,0,0,0,0,0,0,0,0,0,0,0,8,0,0,2,1,166,16.6000003814697,17,26,1,12,0,2,3,3,3,3,3,3,0,3,2,0,0,0,1,3,3,2,3,0,1,0,NA,NA,2,2,2,162,15,15,0,0,0,NA,0,1,1,0,0,0,0.727272727272727,1
8,"drb96zsu",2,0,120,0,110,60,170,10,20,30,76,0.333333343267441,33,0,NA,110,NA,NA,NA,NA,NA,NA,4,0,5,"e4y6khl6",0,100,-10,28,8,7,10,6,0,0,1,1,1,0,0,0,1,1,40,60,1,0,0,0,0,0,1,1,10,18,0,4,7,10,14,18,20,22,28,10,18,0,2,1,228,22.7999992370605,23,19,0,12,1,2,2,0,1,1,1,2,0,3,3,3,1,0,1,3,3,3,0,0,2,1,NA,NA,2,1,2,169,15,15,0,0.0833333333333333,10,NA,0,2,0,0,1,0,0.727272727272727,1
8,"drb96zsu",2,1,120,1,40,40,80,80,40,120,36,0.666666686534882,67,0,1,36,NA,NA,NA,NA,NA,NA,6,1,4,"e4y6khl6",0,100,-10,28,8,7,10,6,0,0,1,1,1,0,0,0,1,1,40,60,1,0,0,0,0,0,1,1,10,18,0,4,7,10,14,18,20,22,28,10,18,0,2,1,228,22.7999992370605,23,19,0,12,1,2,2,0,1,1,1,2,0,3,3,3,1,0,1,3,3,3,0,0,2,1,NA,NA,2,1,2,169,15,15,1,0.666666666666667,NA,80,0,4,0,0,0,1,0.727272727272727,1
8,"drb96zsu",2,0,120,1,100,80,180,20,0,20,81,1,100,1,1,81,110,NA,NA,NA,NA,2,2,1,7,"e4y6khl6",0,100,-10,28,8,7,10,6,0,0,1,1,1,0,0,0,1,1,40,60,1,0,0,0,0,0,1,1,10,18,0,4,7,10,14,18,20,22,28,10,18,0,2,1,228,22.7999992370605,23,19,0,12,1,2,2,0,1,1,1,2,0,3,3,3,1,0,1,3,3,3,0,0,2,1,NA,NA,2,1,2,169,15,15,1,0.166666666666667,20,NA,0,2,0,0,1,0,0.727272727272727,1
8,"drb96zsu",2,1,120,1,60,20,80,60,60,120,36,0.5,50,1,0,0,NA,NA,NA,NA,NA,NA,7,1,2,"e4y6khl6",0,100,-10,28,8,7,10,6,0,0,1,1,1,0,0,0,1,1,40,60,1,0,0,0,0,0,1,1,10,18,0,4,7,10,14,18,20,22,28,10,18,0,2,1,228,22.7999992370605,23,19,0,12,1,2,2,0,1,1,1,2,0,3,3,3,1,0,1,3,3,3,0,0,2,1,NA,NA,2,1,2,169,15,15,1,0.5,NA,60,0,4,0,0,0,1,0.727272727272727,1
8,"drb96zsu",2,1,120,1,30,30,60,90,50,140,27,0.642857134342194,64,1,1,27,NA,NA,NA,NA,NA,NA,7,1,3,"e4y6khl6",0,100,-10,28,8,7,10,6,0,0,1,1,1,0,0,0,1,1,40,60,1,0,0,0,0,0,1,1,10,18,0,4,7,10,14,18,20,22,28,10,18,0,2,1,228,22.7999992370605,23,19,0,12,1,2,2,0,1,1,1,2,0,3,3,3,1,0,1,3,3,3,0,0,2,1,NA,NA,2,1,2,169,15,15,1,0.75,NA,90,0,4,0,0,0,1,0.727272727272727,1
8,"drb96zsu",2,0,120,0,100,50,150,20,30,50,68,0.400000005960464,40,0,NA,100,NA,NA,NA,NA,NA,NA,3,0,6,"e4y6khl6",0,100,-10,28,8,7,10,6,0,0,1,1,1,0,0,0,1,1,40,60,1,0,0,0,0,0,1,1,10,18,0,4,7,10,14,18,20,22,28,10,18,0,2,1,228,22.7999992370605,23,19,0,12,1,2,2,0,1,1,1,2,0,3,3,3,1,0,1,3,3,3,0,0,2,1,NA,NA,2,1,2,169,15,15,0,0.166666666666667,20,NA,0,2,0,0,1,0,0.727272727272727,1
8,"drb96zsu",2,1,120,1,90,10,100,30,70,100,45,0.300000011920929,30,1,0,0,NA,NA,1,20,60,NA,1,1,1,"e4y6khl6",0,100,-10,28,8,7,10,6,0,0,1,1,1,0,0,0,1,1,40,60,1,0,0,0,0,0,1,1,10,18,0,4,7,10,14,18,20,22,28,10,18,0,2,1,228,22.7999992370605,23,19,0,12,1,2,2,0,1,1,1,2,0,3,3,3,1,0,1,3,3,3,0,0,2,1,NA,NA,2,1,2,169,15,15,1,0.25,NA,30,0,4,0,0,0,1,0.727272727272727,1
9,"e6dn7910",2,0,120,1,60,10,70,60,70,130,32,0.461538463830948,46,1,1,32,NA,NA,NA,NA,NA,NA,5,1,5,"x7h85wfe",0,80,0,14,1,1,3,5,0,0,1,1,1,0,0,0,0,1,40,40,1,1,0,0,0,0,0,0,2,NA,0,0,0,0,0,2,8,8,8,2,0,1,6,3,94,9.39999961853027,9.5,22,0,10,0,3,1,1,3,1,3,3,3,3,3,0,0,1,3,3,3,3,1,1,4,4,NA,NA,4,4,3,176,29,29,1,0.5,60,NA,0,2,0,0,1,0,0.909090909090909,0
9,"e6dn7910",2,1,120,1,70,60,130,50,20,70,58,0.714285731315613,71,1,1,58,NA,NA,NA,NA,NA,NA,6,1,3,"x7h85wfe",0,80,0,14,1,1,3,5,0,0,1,1,1,0,0,0,0,1,40,40,1,1,0,0,0,0,0,0,2,NA,0,0,0,0,0,2,8,8,8,2,0,1,6,3,94,9.39999961853027,9.5,22,0,10,0,3,1,1,3,1,3,3,3,3,3,0,0,1,3,3,3,3,1,1,4,4,NA,NA,4,4,3,176,29,29,1,0.416666666666667,NA,50,0,4,0,0,0,1,0.909090909090909,0
9,"e6dn7910",2,0,120,1,60,10,70,60,70,130,32,0.461538463830948,46,1,1,32,NA,NA,NA,NA,NA,NA,1,1,2,"x7h85wfe",0,80,0,14,1,1,3,5,0,0,1,1,1,0,0,0,0,1,40,40,1,1,0,0,0,0,0,0,2,NA,0,0,0,0,0,2,8,8,8,2,0,1,6,3,94,9.39999961853027,9.5,22,0,10,0,3,1,1,3,1,3,3,3,3,3,0,0,1,3,3,3,3,1,1,4,4,NA,NA,4,4,3,176,29,29,1,0.5,60,NA,0,2,0,0,1,0,0.909090909090909,0
9,"e6dn7910",2,1,120,1,70,75,145,50,5,55,65,0.909090936183929,91,0,1,65,NA,NA,NA,NA,NA,NA,5,1,4,"x7h85wfe",0,80,0,14,1,1,3,5,0,0,1,1,1,0,0,0,0,1,40,40,1,1,0,0,0,0,0,0,2,NA,0,0,0,0,0,2,8,8,8,2,0,1,6,3,94,9.39999961853027,9.5,22,0,10,0,3,1,1,3,1,3,3,3,3,3,0,0,1,3,3,3,3,1,1,4,4,NA,NA,4,4,3,176,29,29,1,0.416666666666667,NA,50,0,4,0,0,0,1,0.909090909090909,0
9,"e6dn7910",2,1,120,1,70,0,70,50,80,130,32,0.384615391492844,38,1,1,32,NA,NA,NA,NA,NA,NA,4,1,6,"x7h85wfe",0,80,0,14,1,1,3,5,0,0,1,1,1,0,0,0,0,1,40,40,1,1,0,0,0,0,0,0,2,NA,0,0,0,0,0,2,8,8,8,2,0,1,6,3,94,9.39999961853027,9.5,22,0,10,0,3,1,1,3,1,3,3,3,3,3,0,0,1,3,3,3,3,1,1,4,4,NA,NA,4,4,3,176,29,29,1,0.416666666666667,NA,50,0,4,0,0,0,1,0.909090909090909,0
9,"e6dn7910",2,0,120,1,60,80,140,60,0,60,63,1,100,1,1,63,NA,NA,0,40,40,NA,2,1,1,"x7h85wfe",0,80,0,14,1,1,3,5,0,0,1,1,1,0,0,0,0,1,40,40,1,1,0,0,0,0,0,0,2,NA,0,0,0,0,0,2,8,8,8,2,0,1,6,3,94,9.39999961853027,9.5,22,0,10,0,3,1,1,3,1,3,3,3,3,3,0,0,1,3,3,3,3,1,1,4,4,NA,NA,4,4,3,176,29,29,1,0.5,60,NA,0,2,0,0,1,0,0.909090909090909,0
9,"e6dn7910",2,0,120,1,60,0,60,60,80,140,27,0.428571432828903,43,1,0,0,0,NA,NA,NA,NA,2,3,1,7,"x7h85wfe",0,80,0,14,1,1,3,5,0,0,1,1,1,0,0,0,0,1,40,40,1,1,0,0,0,0,0,0,2,NA,0,0,0,0,0,2,8,8,8,2,0,1,6,3,94,9.39999961853027,9.5,22,0,10,0,3,1,1,3,1,3,3,3,3,3,0,0,1,3,3,3,3,1,1,4,4,NA,NA,4,4,3,176,29,29,1,0.5,60,NA,0,2,0,0,1,0,0.909090909090909,0
11,"eqp17a01",2,1,120,1,30,40,70,90,40,130,32,0.692307710647583,69,1,0,0,NA,NA,NA,NA,NA,NA,6,1,6,"x7h85wfe",0,70,30,26,10,8,10,8,0,0,0,0,1,1,1,0,1,1,30,40,1,1,1,1,0,0,0,1,10,NA,0,3,5,8,10,13,15,20,25,10,20,1,6,3,162,16.2000007629395,16.5,21,0,11,1,3,0,0,1,0,0,2,4,3,3,3,3,3,1,4,3,3,0,1,3,3,NA,NA,0,3,3,183,29,29,1,0.75,NA,90,0,4,0,0,0,1,0.272727272727273,0
11,"eqp17a01",2,1,120,1,75,5,80,45,75,120,36,0.375,38,1,1,36,36,NA,NA,NA,NA,2,5,1,7,"x7h85wfe",0,70,30,26,10,8,10,8,0,0,0,0,1,1,1,0,1,1,30,40,1,1,1,1,0,0,0,1,10,NA,0,3,5,8,10,13,15,20,25,10,20,1,6,3,162,16.2000007629395,16.5,21,0,11,1,3,0,0,1,0,0,2,4,3,3,3,3,3,1,4,3,3,0,1,3,3,NA,NA,0,3,3,183,29,29,1,0.375,NA,45,0,4,0,0,0,1,0.272727272727273,0
11,"eqp17a01",2,0,120,1,80,40,120,40,40,80,54,0.5,50,1,0,0,NA,NA,NA,NA,NA,NA,2,1,3,"x7h85wfe",0,70,30,26,10,8,10,8,0,0,0,0,1,1,1,0,1,1,30,40,1,1,1,1,0,0,0,1,10,NA,0,3,5,8,10,13,15,20,25,10,20,1,6,3,162,16.2000007629395,16.5,21,0,11,1,3,0,0,1,0,0,2,4,3,3,3,3,3,1,4,3,3,0,1,3,3,NA,NA,0,3,3,183,29,29,1,0.333333333333333,40,NA,0,2,0,0,1,0,0.272727272727273,0
11,"eqp17a01",2,1,120,1,50,80,130,70,0,70,58,1,100,0,1,58,NA,NA,NA,NA,NA,NA,2,1,2,"x7h85wfe",0,70,30,26,10,8,10,8,0,0,0,0,1,1,1,0,1,1,30,40,1,1,1,1,0,0,0,1,10,NA,0,3,5,8,10,13,15,20,25,10,20,1,6,3,162,16.2000007629395,16.5,21,0,11,1,3,0,0,1,0,0,2,4,3,3,3,3,3,1,4,3,3,0,1,3,3,NA,NA,0,3,3,183,29,29,1,0.583333333333333,NA,70,0,4,0,0,0,1,0.272727272727273,0
11,"eqp17a01",2,1,120,1,80,20,100,40,60,100,45,0.400000005960464,40,1,0,0,NA,NA,0,20,60,NA,4,1,1,"x7h85wfe",0,70,30,26,10,8,10,8,0,0,0,0,1,1,1,0,1,1,30,40,1,1,1,1,0,0,0,1,10,NA,0,3,5,8,10,13,15,20,25,10,20,1,6,3,162,16.2000007629395,16.5,21,0,11,1,3,0,0,1,0,0,2,4,3,3,3,3,3,1,4,3,3,0,1,3,3,NA,NA,0,3,3,183,29,29,1,0.333333333333333,NA,40,0,4,0,0,0,1,0.272727272727273,0
11,"eqp17a01",2,1,120,1,80,60,140,40,20,60,63,0.666666686534882,67,0,1,63,NA,NA,NA,NA,NA,NA,1,1,5,"x7h85wfe",0,70,30,26,10,8,10,8,0,0,0,0,1,1,1,0,1,1,30,40,1,1,1,1,0,0,0,1,10,NA,0,3,5,8,10,13,15,20,25,10,20,1,6,3,162,16.2000007629395,16.5,21,0,11,1,3,0,0,1,0,0,2,4,3,3,3,3,3,1,4,3,3,0,1,3,3,NA,NA,0,3,3,183,29,29,1,0.333333333333333,NA,40,0,4,0,0,0,1,0.272727272727273,0
11,"eqp17a01",2,1,120,1,60,50,110,60,30,90,50,0.666666686534882,67,0,1,50,NA,NA,NA,NA,NA,NA,2,1,4,"x7h85wfe",0,70,30,26,10,8,10,8,0,0,0,0,1,1,1,0,1,1,30,40,1,1,1,1,0,0,0,1,10,NA,0,3,5,8,10,13,15,20,25,10,20,1,6,3,162,16.2000007629395,16.5,21,0,11,1,3,0,0,1,0,0,2,4,3,3,3,3,3,1,4,3,3,0,1,3,3,NA,NA,0,3,3,183,29,29,1,0.5,NA,60,0,4,0,0,0,1,0.272727272727273,0
4,"fj2i72f4",1,0,80,1,40,60,100,40,60,100,45,0.400000005960464,40,1,0,0,NA,NA,NA,NA,NA,NA,4,1,2,"x7h85wfe",0,80,30,16,6,5,10,8,0,0,1,1,1,0,0,0,0,1,40,40,1,1,1,0,0,0,0,1,6,NA,0,3,6,9,10,10,0,0,0,6,6,1,6,3,126,12.6000003814697,13,20,0,9,0,3,3,3,3,1,1,3,3,3,3,3,3,3,3,0,3,3,0,0,3,3,0,3,NA,NA,3,190,29,29,1,0.5,40,NA,0,2,0,0,1,0,0.363636363636364,0
4,"fj2i72f4",1,1,80,1,10,50,60,70,70,140,27,0.5,50,1,0,0,0,NA,NA,NA,NA,1,6,1,7,"x7h85wfe",0,80,30,16,6,5,10,8,0,0,1,1,1,0,0,0,0,1,40,40,1,1,1,0,0,0,0,1,6,NA,0,3,6,9,10,10,0,0,0,6,6,1,6,3,126,12.6000003814697,13,20,0,9,0,3,3,3,3,1,1,3,3,3,3,3,3,3,3,0,3,3,0,0,3,3,0,3,NA,NA,3,190,29,29,1,0.875,NA,70,0,4,0,0,0,1,0.363636363636364,0
4,"fj2i72f4",1,1,80,1,0,60,60,80,60,140,27,0.571428596973419,57,1,1,27,NA,NA,NA,NA,NA,NA,3,1,4,"x7h85wfe",0,80,30,16,6,5,10,8,0,0,1,1,1,0,0,0,0,1,40,40,1,1,1,0,0,0,0,1,6,NA,0,3,6,9,10,10,0,0,0,6,6,1,6,3,126,12.6000003814697,13,20,0,9,0,3,3,3,3,1,1,3,3,3,3,3,3,3,3,0,3,3,0,0,3,3,0,3,NA,NA,3,190,29,29,1,1,NA,80,0,4,0,0,0,1,0.363636363636364,0
4,"fj2i72f4",1,1,80,1,10,60,70,70,60,130,32,0.538461565971375,54,1,1,32,NA,NA,NA,NA,NA,NA,4,1,5,"x7h85wfe",0,80,30,16,6,5,10,8,0,0,1,1,1,0,0,0,0,1,40,40,1,1,1,0,0,0,0,1,6,NA,0,3,6,9,10,10,0,0,0,6,6,1,6,3,126,12.6000003814697,13,20,0,9,0,3,3,3,3,1,1,3,3,3,3,3,3,3,3,0,3,3,0,0,3,3,0,3,NA,NA,3,190,29,29,1,0.875,NA,70,0,4,0,0,0,1,0.363636363636364,0
4,"fj2i72f4",1,1,80,1,0,70,70,80,50,130,32,0.615384638309479,62,1,0,0,NA,NA,NA,NA,NA,NA,4,1,6,"x7h85wfe",0,80,30,16,6,5,10,8,0,0,1,1,1,0,0,0,0,1,40,40,1,1,1,0,0,0,0,1,6,NA,0,3,6,9,10,10,0,0,0,6,6,1,6,3,126,12.6000003814697,13,20,0,9,0,3,3,3,3,1,1,3,3,3,3,3,3,3,3,0,3,3,0,0,3,3,0,3,NA,NA,3,190,29,29,1,1,NA,80,0,4,0,0,0,1,0.363636363636364,0
4,"fj2i72f4",1,1,80,1,20,80,100,60,40,100,45,0.600000023841858,60,1,1,45,NA,NA,1,70,50,NA,4,1,1,"x7h85wfe",0,80,30,16,6,5,10,8,0,0,1,1,1,0,0,0,0,1,40,40,1,1,1,0,0,0,0,1,6,NA,0,3,6,9,10,10,0,0,0,6,6,1,6,3,126,12.6000003814697,13,20,0,9,0,3,3,3,3,1,1,3,3,3,3,3,3,3,3,0,3,3,0,0,3,3,0,3,NA,NA,3,190,29,29,1,0.75,NA,60,0,4,0,0,0,1,0.363636363636364,0
4,"fj2i72f4",1,1,80,1,10,50,60,70,70,140,27,0.5,50,1,0,0,NA,NA,NA,NA,NA,NA,1,1,3,"x7h85wfe",0,80,30,16,6,5,10,8,0,0,1,1,1,0,0,0,0,1,40,40,1,1,1,0,0,0,0,1,6,NA,0,3,6,9,10,10,0,0,0,6,6,1,6,3,126,12.6000003814697,13,20,0,9,0,3,3,3,3,1,1,3,3,3,3,3,3,3,3,0,3,3,0,0,3,3,0,3,NA,NA,3,190,29,29,1,0.875,NA,70,0,4,0,0,0,1,0.363636363636364,0
6,"h6m2r8pg",1,1,80,1,0,0,0,80,120,200,0,0.400000005960464,40,1,1,0,0,NA,NA,NA,NA,1,4,1,7,"a9g7r98j",0,80,30,8,8,7,8,3,0,0,1,1,1,0,0,0,0,0,40,40,1,1,1,0,0,0,0,1,16,20,0,4,8,12,16,20,24,28,32,4,8,0,2,1,118,11.8000001907349,12,22,1,12,1,3,3,3,1,3,3,3,2,3,3,4,4,4,4,4,3,3,2,0,3,3,0,3,NA,NA,3,197,8,8,1,1,NA,80,0,4,0,0,0,1,0.545454545454545,1
6,"h6m2r8pg",1,0,80,1,79,41,120,1,79,80,54,0.0125000001862645,1,1,0,0,NA,NA,0,0,120,NA,3,1,1,"a9g7r98j",0,80,30,8,8,7,8,3,0,0,1,1,1,0,0,0,0,0,40,40,1,1,1,0,0,0,0,1,16,20,0,4,8,12,16,20,24,28,32,4,8,0,2,1,118,11.8000001907349,12,22,1,12,1,3,3,3,1,3,3,3,2,3,3,4,4,4,4,4,3,3,2,0,3,3,0,3,NA,NA,3,197,8,8,1,0.0125,1,NA,0,2,0,0,1,0,0.545454545454545,1
6,"h6m2r8pg",1,1,80,1,0,60,60,80,60,140,27,0.571428596973419,57,0,1,27,NA,NA,NA,NA,NA,NA,5,1,4,"a9g7r98j",0,80,30,8,8,7,8,3,0,0,1,1,1,0,0,0,0,0,40,40,1,1,1,0,0,0,0,1,16,20,0,4,8,12,16,20,24,28,32,4,8,0,2,1,118,11.8000001907349,12,22,1,12,1,3,3,3,1,3,3,3,2,3,3,4,4,4,4,4,3,3,2,0,3,3,0,3,NA,NA,3,197,8,8,1,1,NA,80,0,4,0,0,0,1,0.545454545454545,1
6,"h6m2r8pg",1,1,80,1,0,110,110,80,10,90,50,0.888888895511627,89,0,1,50,NA,NA,NA,NA,NA,NA,6,1,6,"a9g7r98j",0,80,30,8,8,7,8,3,0,0,1,1,1,0,0,0,0,0,40,40,1,1,1,0,0,0,0,1,16,20,0,4,8,12,16,20,24,28,32,4,8,0,2,1,118,11.8000001907349,12,22,1,12,1,3,3,3,1,3,3,3,2,3,3,4,4,4,4,4,3,3,2,0,3,3,0,3,NA,NA,3,197,8,8,1,1,NA,80,0,4,0,0,0,1,0.545454545454545,1
6,"h6m2r8pg",1,1,80,1,0,40,40,80,80,160,18,0.5,50,1,0,0,NA,NA,NA,NA,NA,NA,6,1,5,"a9g7r98j",0,80,30,8,8,7,8,3,0,0,1,1,1,0,0,0,0,0,40,40,1,1,1,0,0,0,0,1,16,20,0,4,8,12,16,20,24,28,32,4,8,0,2,1,118,11.8000001907349,12,22,1,12,1,3,3,3,1,3,3,3,2,3,3,4,4,4,4,4,3,3,2,0,3,3,0,3,NA,NA,3,197,8,8,1,1,NA,80,0,4,0,0,0,1,0.545454545454545,1
6,"h6m2r8pg",1,1,80,1,0,120,120,80,0,80,54,1,100,0,1,54,NA,NA,NA,NA,NA,NA,5,1,2,"a9g7r98j",0,80,30,8,8,7,8,3,0,0,1,1,1,0,0,0,0,0,40,40,1,1,1,0,0,0,0,1,16,20,0,4,8,12,16,20,24,28,32,4,8,0,2,1,118,11.8000001907349,12,22,1,12,1,3,3,3,1,3,3,3,2,3,3,4,4,4,4,4,3,3,2,0,3,3,0,3,NA,NA,3,197,8,8,1,1,NA,80,0,4,0,0,0,1,0.545454545454545,1
6,"h6m2r8pg",1,1,80,1,0,60,60,80,60,140,27,0.571428596973419,57,0,1,27,NA,NA,NA,NA,NA,NA,7,1,3,"a9g7r98j",0,80,30,8,8,7,8,3,0,0,1,1,1,0,0,0,0,0,40,40,1,1,1,0,0,0,0,1,16,20,0,4,8,12,16,20,24,28,32,4,8,0,2,1,118,11.8000001907349,12,22,1,12,1,3,3,3,1,3,3,3,2,3,3,4,4,4,4,4,3,3,2,0,3,3,0,3,NA,NA,3,197,8,8,1,1,NA,80,0,4,0,0,0,1,0.545454545454545,1
14,"jn9drb27",2,0,120,1,80,0,80,40,80,120,36,0.333333343267441,33,1,1,36,NA,NA,NA,NA,NA,NA,5,1,2,"e4y6khl6",0,80,30,24,8,7,9,4,0,1,1,1,1,0,0,0,0,1,40,40,1,1,0,0,0,0,0,1,16,NA,0,0,0,4,8,8,14,20,24,16,24,1,2,1,209,20.8999996185303,21,23,1,12,1,3,3,3,3,3,3,3,3,4,3,0,0,0,0,3,3,3,3,1,1,0,NA,NA,3,1,3,204,15,15,1,0.333333333333333,40,NA,0,2,0,0,1,0,0.363636363636364,1
14,"jn9drb27",2,0,120,1,110,25,135,10,55,65,61,0.15384615957737,15,1,0,0,NA,NA,0,0,80,NA,7,1,1,"e4y6khl6",0,80,30,24,8,7,9,4,0,1,1,1,1,0,0,0,0,1,40,40,1,1,0,0,0,0,0,1,16,NA,0,0,0,4,8,8,14,20,24,16,24,1,2,1,209,20.8999996185303,21,23,1,12,1,3,3,3,3,3,3,3,3,4,3,0,0,0,0,3,3,3,3,1,1,0,NA,NA,3,1,3,204,15,15,1,0.0833333333333333,10,NA,0,2,0,0,1,0,0.363636363636364,1
14,"jn9drb27",2,0,120,1,90,10,100,30,70,100,45,0.300000011920929,30,1,0,0,NA,NA,NA,NA,NA,NA,5,1,3,"e4y6khl6",0,80,30,24,8,7,9,4,0,1,1,1,1,0,0,0,0,1,40,40,1,1,0,0,0,0,0,1,16,NA,0,0,0,4,8,8,14,20,24,16,24,1,2,1,209,20.8999996185303,21,23,1,12,1,3,3,3,3,3,3,3,3,4,3,0,0,0,0,3,3,3,3,1,1,0,NA,NA,3,1,3,204,15,15,1,0.25,30,NA,0,2,0,0,1,0,0.363636363636364,1
14,"jn9drb27",2,0,120,0,75,50,125,45,30,75,56,0.600000023841858,60,0,NA,75,NA,NA,NA,NA,NA,NA,3,0,5,"e4y6khl6",0,80,30,24,8,7,9,4,0,1,1,1,1,0,0,0,0,1,40,40,1,1,0,0,0,0,0,1,16,NA,0,0,0,4,8,8,14,20,24,16,24,1,2,1,209,20.8999996185303,21,23,1,12,1,3,3,3,3,3,3,3,3,4,3,0,0,0,0,3,3,3,3,1,1,0,NA,NA,3,1,3,204,15,15,0,0.375,45,NA,0,2,0,0,1,0,0.363636363636364,1
14,"jn9drb27",2,0,120,0,90,80,170,30,0,30,76,1,100,0,NA,90,NA,NA,NA,NA,NA,NA,5,0,6,"e4y6khl6",0,80,30,24,8,7,9,4,0,1,1,1,1,0,0,0,0,1,40,40,1,1,0,0,0,0,0,1,16,NA,0,0,0,4,8,8,14,20,24,16,24,1,2,1,209,20.8999996185303,21,23,1,12,1,3,3,3,3,3,3,3,3,4,3,0,0,0,0,3,3,3,3,1,1,0,NA,NA,3,1,3,204,15,15,0,0.25,30,NA,0,2,0,0,1,0,0.363636363636364,1
14,"jn9drb27",2,0,120,0,70,60,130,50,20,70,58,0.714285731315613,71,0,NA,70,NA,NA,NA,NA,NA,NA,3,0,4,"e4y6khl6",0,80,30,24,8,7,9,4,0,1,1,1,1,0,0,0,0,1,40,40,1,1,0,0,0,0,0,1,16,NA,0,0,0,4,8,8,14,20,24,16,24,1,2,1,209,20.8999996185303,21,23,1,12,1,3,3,3,3,3,3,3,3,4,3,0,0,0,0,3,3,3,3,1,1,0,NA,NA,3,1,3,204,15,15,0,0.416666666666667,50,NA,0,2,0,0,1,0,0.363636363636364,1
14,"jn9drb27",2,0,120,1,110,30,140,10,50,60,63,0.16666667163372,17,1,0,0,75,NA,NA,NA,NA,2,1,1,7,"e4y6khl6",0,80,30,24,8,7,9,4,0,1,1,1,1,0,0,0,0,1,40,40,1,1,0,0,0,0,0,1,16,NA,0,0,0,4,8,8,14,20,24,16,24,1,2,1,209,20.8999996185303,21,23,1,12,1,3,3,3,3,3,3,3,3,4,3,0,0,0,0,3,3,3,3,1,1,0,NA,NA,3,1,3,204,15,15,1,0.0833333333333333,10,NA,0,2,0,0,1,0,0.363636363636364,1
2,"knct7fpg",1,0,80,1,50,40,90,30,80,110,40,0.272727280855179,27,1,0,0,NA,NA,0,60,60,NA,2,1,1,"e4y6khl6",0,80,-10,12,1,0,5,2,0,0,1,1,1,0,0,0,0,0,40,40,1,1,1,0,0,0,1,1,4,NA,0,0,0,0,8,0,5,5,5,4,0,1,2,1,82,8.19999980926514,8.5,26,0,11,1,2,1,2,2,3,3,4,1,3,3,0,1,0,3,0,3,3,2,3,1,0,2,1,NA,NA,3,211,15,15,1,0.375,30,NA,0,2,0,0,1,0,0.818181818181818,0
2,"knct7fpg",1,1,80,1,60,120,180,20,0,20,81,1,100,0,1,81,NA,NA,NA,NA,NA,NA,3,1,2,"e4y6khl6",0,80,-10,12,1,0,5,2,0,0,1,1,1,0,0,0,0,0,40,40,1,1,1,0,0,0,1,1,4,NA,0,0,0,0,8,0,5,5,5,4,0,1,2,1,82,8.19999980926514,8.5,26,0,11,1,2,1,2,2,3,3,4,1,3,3,0,1,0,3,0,3,3,2,3,1,0,2,1,NA,NA,3,211,15,15,1,0.25,NA,20,0,4,0,0,0,1,0.818181818181818,0
2,"knct7fpg",1,1,80,1,80,100,180,0,20,20,81,0,0,0,0,0,0,NA,NA,NA,NA,1,2,1,7,"e4y6khl6",0,80,-10,12,1,0,5,2,0,0,1,1,1,0,0,0,0,0,40,40,1,1,1,0,0,0,1,1,4,NA,0,0,0,0,8,0,5,5,5,4,0,1,2,1,82,8.19999980926514,8.5,26,0,11,1,2,1,2,2,3,3,4,1,3,3,0,1,0,3,0,3,3,2,3,1,0,2,1,NA,NA,3,211,15,15,1,0,NA,0,0,3,0,1,0,0,0.818181818181818,0
2,"knct7fpg",1,0,80,1,80,40,120,0,80,80,54,0,0,1,0,0,NA,NA,NA,NA,NA,NA,2,1,3,"e4y6khl6",0,80,-10,12,1,0,5,2,0,0,1,1,1,0,0,0,0,0,40,40,1,1,1,0,0,0,1,1,4,NA,0,0,0,0,8,0,5,5,5,4,0,1,2,1,82,8.19999980926514,8.5,26,0,11,1,2,1,2,2,3,3,4,1,3,3,0,1,0,3,0,3,3,2,3,1,0,2,1,NA,NA,3,211,15,15,1,0,0,NA,0,1,1,0,0,0,0.818181818181818,0
2,"knct7fpg",1,0,80,1,80,25,105,0,95,95,47,0,0,1,0,0,NA,NA,NA,NA,NA,NA,2,1,5,"e4y6khl6",0,80,-10,12,1,0,5,2,0,0,1,1,1,0,0,0,0,0,40,40,1,1,1,0,0,0,1,1,4,NA,0,0,0,0,8,0,5,5,5,4,0,1,2,1,82,8.19999980926514,8.5,26,0,11,1,2,1,2,2,3,3,4,1,3,3,0,1,0,3,0,3,3,2,3,1,0,2,1,NA,NA,3,211,15,15,1,0,0,NA,0,1,1,0,0,0,0.818181818181818,0
2,"knct7fpg",1,0,80,0,80,110,190,0,10,10,86,0,0,0,NA,80,NA,NA,NA,NA,NA,NA,1,0,4,"e4y6khl6",0,80,-10,12,1,0,5,2,0,0,1,1,1,0,0,0,0,0,40,40,1,1,1,0,0,0,1,1,4,NA,0,0,0,0,8,0,5,5,5,4,0,1,2,1,82,8.19999980926514,8.5,26,0,11,1,2,1,2,2,3,3,4,1,3,3,0,1,0,3,0,3,3,2,3,1,0,2,1,NA,NA,3,211,15,15,0,0,0,NA,0,1,1,0,0,0,0.818181818181818,0
2,"knct7fpg",1,0,80,0,80,90,170,0,30,30,76,0,0,0,NA,80,NA,NA,NA,NA,NA,NA,5,0,6,"e4y6khl6",0,80,-10,12,1,0,5,2,0,0,1,1,1,0,0,0,0,0,40,40,1,1,1,0,0,0,1,1,4,NA,0,0,0,0,8,0,5,5,5,4,0,1,2,1,82,8.19999980926514,8.5,26,0,11,1,2,1,2,2,3,3,4,1,3,3,0,1,0,3,0,3,3,2,3,1,0,2,1,NA,NA,3,211,15,15,0,0,0,NA,0,1,1,0,0,0,0.818181818181818,0
6,"lxn6lgrc",1,1,80,1,9,40,49,71,80,151,22,0.470198661088943,47,1,1,22,NA,NA,1,110,10,NA,3,1,1,"zlc5ls51",0,80,-10,34,7,5,9,6,0,0,1,1,1,0,0,1,1,1,40,40,1,1,0,0,0,0,1,1,0,0,0,0,0,0,0,0,0,0,0,6,0,0,2,1,104,10.3999996185303,10.5,25,0,12,0,3,0,0,2,2,2,2,0,3,3,3,3,3,3,3,3,3,1,0,3,3,0,3,NA,NA,3,218,1,1,1,0.8875,NA,71,0,4,0,0,0,1,0.454545454545455,1
6,"lxn6lgrc",1,1,80,1,9,90,99,71,30,101,45,0.702970325946808,70,0,0,0,NA,NA,NA,NA,NA,NA,6,1,5,"zlc5ls51",0,80,-10,34,7,5,9,6,0,0,1,1,1,0,0,1,1,1,40,40,1,1,0,0,0,0,1,1,0,0,0,0,0,0,0,0,0,0,0,6,0,0,2,1,104,10.3999996185303,10.5,25,0,12,0,3,0,0,2,2,2,2,0,3,3,3,3,3,3,3,3,3,1,0,3,3,0,3,NA,NA,3,218,1,1,1,0.8875,NA,71,0,4,0,0,0,1,0.454545454545455,1
6,"lxn6lgrc",1,1,80,1,9,50,59,71,70,141,27,0.503546118736267,50,0,0,0,NA,NA,NA,NA,NA,NA,6,1,6,"zlc5ls51",0,80,-10,34,7,5,9,6,0,0,1,1,1,0,0,1,1,1,40,40,1,1,0,0,0,0,1,1,0,0,0,0,0,0,0,0,0,0,0,6,0,0,2,1,104,10.3999996185303,10.5,25,0,12,0,3,0,0,2,2,2,2,0,3,3,3,3,3,3,3,3,3,1,0,3,3,0,3,NA,NA,3,218,1,1,1,0.8875,NA,71,0,4,0,0,0,1,0.454545454545455,1
6,"lxn6lgrc",1,1,80,1,10,60,70,70,60,130,32,0.538461565971375,54,0,0,0,NA,NA,NA,NA,NA,NA,5,1,4,"zlc5ls51",0,80,-10,34,7,5,9,6,0,0,1,1,1,0,0,1,1,1,40,40,1,1,0,0,0,0,1,1,0,0,0,0,0,0,0,0,0,0,0,6,0,0,2,1,104,10.3999996185303,10.5,25,0,12,0,3,0,0,2,2,2,2,0,3,3,3,3,3,3,3,3,3,1,0,3,3,0,3,NA,NA,3,218,1,1,1,0.875,NA,70,0,4,0,0,0,1,0.454545454545455,1
6,"lxn6lgrc",1,1,80,1,10,70,80,70,50,120,36,0.583333313465118,58,0,1,36,NA,NA,NA,NA,NA,NA,5,1,2,"zlc5ls51",0,80,-10,34,7,5,9,6,0,0,1,1,1,0,0,1,1,1,40,40,1,1,0,0,0,0,1,1,0,0,0,0,0,0,0,0,0,0,0,6,0,0,2,1,104,10.3999996185303,10.5,25,0,12,0,3,0,0,2,2,2,2,0,3,3,3,3,3,3,3,3,3,1,0,3,3,0,3,NA,NA,3,218,1,1,1,0.875,NA,70,0,4,0,0,0,1,0.454545454545455,1
6,"lxn6lgrc",1,1,80,1,10,70,80,70,50,120,36,0.583333313465118,58,1,1,36,NA,NA,NA,NA,NA,NA,7,1,3,"zlc5ls51",0,80,-10,34,7,5,9,6,0,0,1,1,1,0,0,1,1,1,40,40,1,1,0,0,0,0,1,1,0,0,0,0,0,0,0,0,0,0,0,6,0,0,2,1,104,10.3999996185303,10.5,25,0,12,0,3,0,0,2,2,2,2,0,3,3,3,3,3,3,3,3,3,1,0,3,3,0,3,NA,NA,3,218,1,1,1,0.875,NA,70,0,4,0,0,0,1,0.454545454545455,1
6,"lxn6lgrc",1,1,80,1,5,60,65,75,60,135,29,0.555555582046509,56,1,0,0,0,NA,NA,NA,NA,1,4,1,7,"zlc5ls51",0,80,-10,34,7,5,9,6,0,0,1,1,1,0,0,1,1,1,40,40,1,1,0,0,0,0,1,1,0,0,0,0,0,0,0,0,0,0,0,6,0,0,2,1,104,10.3999996185303,10.5,25,0,12,0,3,0,0,2,2,2,2,0,3,3,3,3,3,3,3,3,3,1,0,3,3,0,3,NA,NA,3,218,1,1,1,0.9375,NA,75,0,4,0,0,0,1,0.454545454545455,1
13,"mv3hidsm",2,0,120,0,40,50,90,80,30,110,40,0.727272748947144,73,0,NA,40,NA,NA,NA,NA,NA,NA,1,0,3,"zlc5ls51",0,100,30,52,8,6,8,2,0,1,1,1,1,0,1,1,1,1,40,60,1,1,1,1,0,0,0,1,8,12,0,2,4,6,12,12,14,16,18,16,18,0,2,1,272,27.2000007629395,27.5,18,0,7,1,2,3,1,1,2,3,2,2,3,3,0,2,0,1,4,3,3,1,0,2,2,NA,NA,1,2,3,225,1,1,0,0.666666666666667,80,NA,0,2,0,0,1,0,0.727272727272727,0
13,"mv3hidsm",2,0,120,0,90,37,127,30,43,73,57,0.410958915948868,41,0,NA,90,NA,NA,NA,NA,NA,NA,4,0,4,"zlc5ls51",0,100,30,52,8,6,8,2,0,1,1,1,1,0,1,1,1,1,40,60,1,1,1,1,0,0,0,1,8,12,0,2,4,6,12,12,14,16,18,16,18,0,2,1,272,27.2000007629395,27.5,18,0,7,1,2,3,1,1,2,3,2,2,3,3,0,2,0,1,4,3,3,1,0,2,2,NA,NA,1,2,3,225,1,1,0,0.25,30,NA,0,2,0,0,1,0,0.727272727272727,0
13,"mv3hidsm",2,0,120,1,60,5,65,60,75,135,29,0.444444447755814,44,1,0,0,90,NA,NA,NA,NA,2,7,1,7,"zlc5ls51",0,100,30,52,8,6,8,2,0,1,1,1,1,0,1,1,1,1,40,60,1,1,1,1,0,0,0,1,8,12,0,2,4,6,12,12,14,16,18,16,18,0,2,1,272,27.2000007629395,27.5,18,0,7,1,2,3,1,1,2,3,2,2,3,3,0,2,0,1,4,3,3,1,0,2,2,NA,NA,1,2,3,225,1,1,1,0.5,60,NA,0,2,0,0,1,0,0.727272727272727,0
13,"mv3hidsm",2,1,120,1,40,9,49,80,71,151,22,0.529801309108734,53,1,0,0,NA,NA,1,60,20,NA,3,1,1,"zlc5ls51",0,100,30,52,8,6,8,2,0,1,1,1,1,0,1,1,1,1,40,60,1,1,1,1,0,0,0,1,8,12,0,2,4,6,12,12,14,16,18,16,18,0,2,1,272,27.2000007629395,27.5,18,0,7,1,2,3,1,1,2,3,2,2,3,3,0,2,0,1,4,3,3,1,0,2,2,NA,NA,1,2,3,225,1,1,1,0.666666666666667,NA,80,0,4,0,0,0,1,0.727272727272727,0
13,"mv3hidsm",2,1,120,1,50,10,60,70,70,140,27,0.5,50,1,0,0,NA,NA,NA,NA,NA,NA,6,1,2,"zlc5ls51",0,100,30,52,8,6,8,2,0,1,1,1,1,0,1,1,1,1,40,60,1,1,1,1,0,0,0,1,8,12,0,2,4,6,12,12,14,16,18,16,18,0,2,1,272,27.2000007629395,27.5,18,0,7,1,2,3,1,1,2,3,2,2,3,3,0,2,0,1,4,3,3,1,0,2,2,NA,NA,1,2,3,225,1,1,1,0.583333333333333,NA,70,0,4,0,0,0,1,0.727272727272727,0
13,"mv3hidsm",2,0,120,0,90,80,170,30,0,30,76,1,100,0,NA,90,NA,NA,NA,NA,NA,NA,2,0,5,"zlc5ls51",0,100,30,52,8,6,8,2,0,1,1,1,1,0,1,1,1,1,40,60,1,1,1,1,0,0,0,1,8,12,0,2,4,6,12,12,14,16,18,16,18,0,2,1,272,27.2000007629395,27.5,18,0,7,1,2,3,1,1,2,3,2,2,3,3,0,2,0,1,4,3,3,1,0,2,2,NA,NA,1,2,3,225,1,1,0,0.25,30,NA,0,2,0,0,1,0,0.727272727272727,0
13,"mv3hidsm",2,0,120,1,110,40,150,10,40,50,68,0.200000002980232,20,1,0,0,NA,NA,NA,NA,NA,NA,1,1,6,"zlc5ls51",0,100,30,52,8,6,8,2,0,1,1,1,1,0,1,1,1,1,40,60,1,1,1,1,0,0,0,1,8,12,0,2,4,6,12,12,14,16,18,16,18,0,2,1,272,27.2000007629395,27.5,18,0,7,1,2,3,1,1,2,3,2,2,3,3,0,2,0,1,4,3,3,1,0,2,2,NA,NA,1,2,3,225,1,1,1,0.0833333333333333,10,NA,0,2,0,0,1,0,0.727272727272727,0
3,"n1jdw7nf",1,0,80,0,70,120,190,10,0,10,86,1,100,0,NA,70,NA,NA,0,70,50,NA,6,0,1,"e4y6khl6",0,80,0,26,3,3,3,6,0,0,1,1,1,0,0,0,0,0,40,40,0,0,1,1,1,1,0,0,16,8,0,3,6,8,10,15,17,21,24,6,8,0,2,1,156,15.6000003814697,16,24,0,13,0,2,4,4,4,4,4,4,4,4,4,0,2,1,1,1,0,4,4,4,4,4,4,4,NA,NA,4,232,15,15,0,0.125,10,NA,0,2,0,0,1,0,0.727272727272727,0
3,"n1jdw7nf",1,0,80,0,50,100,150,30,20,50,68,0.600000023841858,60,0,NA,50,NA,NA,NA,NA,NA,NA,3,0,6,"e4y6khl6",0,80,0,26,3,3,3,6,0,0,1,1,1,0,0,0,0,0,40,40,0,0,1,1,1,1,0,0,16,8,0,3,6,8,10,15,17,21,24,6,8,0,2,1,156,15.6000003814697,16,24,0,13,0,2,4,4,4,4,4,4,4,4,4,0,2,1,1,1,0,4,4,4,4,4,4,4,NA,NA,4,232,15,15,0,0.375,30,NA,0,2,0,0,1,0,0.727272727272727,0
3,"n1jdw7nf",1,0,80,1,40,50,90,40,70,110,40,0.363636374473572,36,1,0,0,NA,NA,NA,NA,NA,NA,3,1,3,"e4y6khl6",0,80,0,26,3,3,3,6,0,0,1,1,1,0,0,0,0,0,40,40,0,0,1,1,1,1,0,0,16,8,0,3,6,8,10,15,17,21,24,6,8,0,2,1,156,15.6000003814697,16,24,0,13,0,2,4,4,4,4,4,4,4,4,4,0,2,1,1,1,0,4,4,4,4,4,4,4,NA,NA,4,232,15,15,1,0.5,40,NA,0,2,0,0,1,0,0.727272727272727,0
3,"n1jdw7nf",1,0,80,1,80,40,120,0,80,80,54,0,0,1,0,0,NA,NA,NA,NA,NA,NA,2,1,2,"e4y6khl6",0,80,0,26,3,3,3,6,0,0,1,1,1,0,0,0,0,0,40,40,0,0,1,1,1,1,0,0,16,8,0,3,6,8,10,15,17,21,24,6,8,0,2,1,156,15.6000003814697,16,24,0,13,0,2,4,4,4,4,4,4,4,4,4,0,2,1,1,1,0,4,4,4,4,4,4,4,NA,NA,4,232,15,15,1,0,0,NA,0,1,1,0,0,0,0.727272727272727,0
3,"n1jdw7nf",1,0,80,0,50,75,125,30,45,75,56,0.400000005960464,40,0,NA,50,NA,NA,NA,NA,NA,NA,3,0,5,"e4y6khl6",0,80,0,26,3,3,3,6,0,0,1,1,1,0,0,0,0,0,40,40,0,0,1,1,1,1,0,0,16,8,0,3,6,8,10,15,17,21,24,6,8,0,2,1,156,15.6000003814697,16,24,0,13,0,2,4,4,4,4,4,4,4,4,4,0,2,1,1,1,0,4,4,4,4,4,4,4,NA,NA,4,232,15,15,0,0.375,30,NA,0,2,0,0,1,0,0.727272727272727,0
3,"n1jdw7nf",1,0,80,0,50,50,100,30,70,100,45,0.300000011920929,30,0,NA,50,50,NA,NA,NA,NA,1,3,0,7,"e4y6khl6",0,80,0,26,3,3,3,6,0,0,1,1,1,0,0,0,0,0,40,40,0,0,1,1,1,1,0,0,16,8,0,3,6,8,10,15,17,21,24,6,8,0,2,1,156,15.6000003814697,16,24,0,13,0,2,4,4,4,4,4,4,4,4,4,0,2,1,1,1,0,4,4,4,4,4,4,4,NA,NA,4,232,15,15,0,0.375,30,NA,0,2,0,0,1,0,0.727272727272727,0
3,"n1jdw7nf",1,0,80,1,60,20,80,20,100,120,36,0.16666667163372,17,1,0,0,NA,NA,NA,NA,NA,NA,4,1,4,"e4y6khl6",0,80,0,26,3,3,3,6,0,0,1,1,1,0,0,0,0,0,40,40,0,0,1,1,1,1,0,0,16,8,0,3,6,8,10,15,17,21,24,6,8,0,2,1,156,15.6000003814697,16,24,0,13,0,2,4,4,4,4,4,4,4,4,4,0,2,1,1,1,0,4,4,4,4,4,4,4,NA,NA,4,232,15,15,1,0.25,20,NA,0,2,0,0,1,0,0.727272727272727,0
3,"ne5mpjam",1,0,80,1,80,0,80,0,120,120,36,0,0,1,0,0,NA,NA,NA,NA,NA,NA,3,1,3,"a9g7r98j",0,80,30,30,6,5,8,7,1,0,1,0,1,0,0,0,0,1,40,40,1,1,0,0,0,0,0,1,8,10,0,4,3,5,10,9,14,10,16,8,10,0,2,1,203,20.2999992370605,20.5,25,0,9,1,2,2,2,2,2,2,2,1,3,3,1,0,0,0,2,3,3,3,1,2,2,3,0,NA,NA,3,239,8,8,1,0,0,NA,0,1,1,0,0,0,0.363636363636364,0
3,"ne5mpjam",1,0,80,0,60,80,140,20,40,60,63,0.333333343267441,33,0,NA,60,NA,NA,NA,NA,NA,NA,3,0,6,"a9g7r98j",0,80,30,30,6,5,8,7,1,0,1,0,1,0,0,0,0,1,40,40,1,1,0,0,0,0,0,1,8,10,0,4,3,5,10,9,14,10,16,8,10,0,2,1,203,20.2999992370605,20.5,25,0,9,1,2,2,2,2,2,2,2,1,3,3,1,0,0,0,2,3,3,3,1,2,2,3,0,NA,NA,3,239,8,8,0,0.25,20,NA,0,2,0,0,1,0,0.363636363636364,0
3,"ne5mpjam",1,1,80,1,0,110,110,80,10,90,50,0.888888895511627,89,0,1,50,NA,NA,NA,NA,NA,NA,4,1,4,"a9g7r98j",0,80,30,30,6,5,8,7,1,0,1,0,1,0,0,0,0,1,40,40,1,1,0,0,0,0,0,1,8,10,0,4,3,5,10,9,14,10,16,8,10,0,2,1,203,20.2999992370605,20.5,25,0,9,1,2,2,2,2,2,2,2,1,3,3,1,0,0,0,2,3,3,3,1,2,2,3,0,NA,NA,3,239,8,8,1,1,NA,80,0,4,0,0,0,1,0.363636363636364,0
3,"ne5mpjam",1,0,80,0,70,60,130,10,60,70,58,0.142857149243355,14,0,NA,70,63,NA,NA,NA,NA,1,3,0,7,"a9g7r98j",0,80,30,30,6,5,8,7,1,0,1,0,1,0,0,0,0,1,40,40,1,1,0,0,0,0,0,1,8,10,0,4,3,5,10,9,14,10,16,8,10,0,2,1,203,20.2999992370605,20.5,25,0,9,1,2,2,2,2,2,2,2,1,3,3,1,0,0,0,2,3,3,3,1,2,2,3,0,NA,NA,3,239,8,8,0,0.125,10,NA,0,2,0,0,1,0,0.363636363636364,0
3,"ne5mpjam",1,0,80,0,80,70,150,0,50,50,68,0,0,0,NA,80,NA,NA,NA,NA,NA,NA,2,0,2,"a9g7r98j",0,80,30,30,6,5,8,7,1,0,1,0,1,0,0,0,0,1,40,40,1,1,0,0,0,0,0,1,8,10,0,4,3,5,10,9,14,10,16,8,10,0,2,1,203,20.2999992370605,20.5,25,0,9,1,2,2,2,2,2,2,2,1,3,3,1,0,0,0,2,3,3,3,1,2,2,3,0,NA,NA,3,239,8,8,0,0,0,NA,0,1,1,0,0,0,0.363636363636364,0
3,"ne5mpjam",1,0,80,0,80,100,180,0,20,20,81,0,0,0,NA,80,NA,NA,0,0,120,NA,6,0,1,"a9g7r98j",0,80,30,30,6,5,8,7,1,0,1,0,1,0,0,0,0,1,40,40,1,1,0,0,0,0,0,1,8,10,0,4,3,5,10,9,14,10,16,8,10,0,2,1,203,20.2999992370605,20.5,25,0,9,1,2,2,2,2,2,2,2,1,3,3,1,0,0,0,2,3,3,3,1,2,2,3,0,NA,NA,3,239,8,8,0,0,0,NA,0,1,1,0,0,0,0.363636363636364,0
3,"ne5mpjam",1,1,80,1,40,100,140,40,20,60,63,0.666666686534882,67,0,1,63,NA,NA,NA,NA,NA,NA,3,1,5,"a9g7r98j",0,80,30,30,6,5,8,7,1,0,1,0,1,0,0,0,0,1,40,40,1,1,0,0,0,0,0,1,8,10,0,4,3,5,10,9,14,10,16,8,10,0,2,1,203,20.2999992370605,20.5,25,0,9,1,2,2,2,2,2,2,2,1,3,3,1,0,0,0,2,3,3,3,1,2,2,3,0,NA,NA,3,239,8,8,1,0.5,NA,40,0,4,0,0,0,1,0.363636363636364,0
2,"nx85jbou",1,0,80,0,60,110,170,20,10,30,76,0.666666686534882,67,0,NA,60,NA,NA,NA,NA,NA,NA,3,0,2,"zlc5ls51",0,78,30,10,7,7,9,5,0,1,1,1,1,0,0,0,0,1,38,40,1,1,1,0,0,0,0,1,16,NA,0,0,0,2,8,10,14,16,18,16,10,1,2,1,198,19.7999992370605,20,20,1,12,1,3,3,3,3,3,3,3,3,3,3,1,1,0,3,0,3,3,3,3,1,1,3,0,NA,NA,3,246,1,1,0,0.25,20,NA,0,2,0,0,1,0,0.363636363636364,1
2,"nx85jbou",1,0,80,0,80,70,150,0,50,50,68,0,0,0,NA,80,NA,NA,NA,NA,NA,NA,2,0,3,"zlc5ls51",0,78,30,10,7,7,9,5,0,1,1,1,1,0,0,0,0,1,38,40,1,1,1,0,0,0,0,1,16,NA,0,0,0,2,8,10,14,16,18,16,10,1,2,1,198,19.7999992370605,20,20,1,12,1,3,3,3,3,3,3,3,3,3,3,1,1,0,3,0,3,3,3,3,1,1,3,0,NA,NA,3,246,1,1,0,0,0,NA,0,1,1,0,0,0,0.363636363636364,1
2,"nx85jbou",1,0,80,0,80,90,170,0,30,30,76,0,0,0,NA,80,NA,NA,NA,NA,NA,NA,2,0,5,"zlc5ls51",0,78,30,10,7,7,9,5,0,1,1,1,1,0,0,0,0,1,38,40,1,1,1,0,0,0,0,1,16,NA,0,0,0,2,8,10,14,16,18,16,10,1,2,1,198,19.7999992370605,20,20,1,12,1,3,3,3,3,3,3,3,3,3,3,1,1,0,3,0,3,3,3,3,1,1,3,0,NA,NA,3,246,1,1,0,0,0,NA,0,1,1,0,0,0,0.363636363636364,1
2,"nx85jbou",1,0,80,0,80,90,170,0,30,30,76,0,0,0,NA,80,80,NA,NA,NA,NA,1,2,0,7,"zlc5ls51",0,78,30,10,7,7,9,5,0,1,1,1,1,0,0,0,0,1,38,40,1,1,1,0,0,0,0,1,16,NA,0,0,0,2,8,10,14,16,18,16,10,1,2,1,198,19.7999992370605,20,20,1,12,1,3,3,3,3,3,3,3,3,3,3,1,1,0,3,0,3,3,3,3,1,1,3,0,NA,NA,3,246,1,1,0,0,0,NA,0,1,1,0,0,0,0.363636363636364,1
2,"nx85jbou",1,0,80,0,60,60,120,20,60,80,54,0.25,25,0,NA,60,NA,NA,0,55,65,NA,2,0,1,"zlc5ls51",0,78,30,10,7,7,9,5,0,1,1,1,1,0,0,0,0,1,38,40,1,1,1,0,0,0,0,1,16,NA,0,0,0,2,8,10,14,16,18,16,10,1,2,1,198,19.7999992370605,20,20,1,12,1,3,3,3,3,3,3,3,3,3,3,1,1,0,3,0,3,3,3,3,1,1,3,0,NA,NA,3,246,1,1,0,0.25,20,NA,0,2,0,0,1,0,0.363636363636364,1
2,"nx85jbou",1,0,80,0,80,70,150,0,50,50,68,0,0,0,NA,80,NA,NA,NA,NA,NA,NA,5,0,6,"zlc5ls51",0,78,30,10,7,7,9,5,0,1,1,1,1,0,0,0,0,1,38,40,1,1,1,0,0,0,0,1,16,NA,0,0,0,2,8,10,14,16,18,16,10,1,2,1,198,19.7999992370605,20,20,1,12,1,3,3,3,3,3,3,3,3,3,3,1,1,0,3,0,3,3,3,3,1,1,3,0,NA,NA,3,246,1,1,0,0,0,NA,0,1,1,0,0,0,0.363636363636364,1
2,"nx85jbou",1,0,80,0,80,120,200,0,0,0,90,0.5,50,0,NA,80,NA,NA,NA,NA,NA,NA,1,0,4,"zlc5ls51",0,78,30,10,7,7,9,5,0,1,1,1,1,0,0,0,0,1,38,40,1,1,1,0,0,0,0,1,16,NA,0,0,0,2,8,10,14,16,18,16,10,1,2,1,198,19.7999992370605,20,20,1,12,1,3,3,3,3,3,3,3,3,3,3,1,1,0,3,0,3,3,3,3,1,1,3,0,NA,NA,3,246,1,1,0,0,0,NA,1,1,1,0,0,0,0.363636363636364,1
5,"oe7g6vuf",1,1,80,1,10,60,70,70,60,130,32,0.538461565971375,54,1,1,32,5,NA,NA,NA,NA,1,5,1,7,"zlc5ls51",0,80,-10,10,10,7,10,6,0,0,1,1,1,0,0,1,1,1,40,40,1,1,1,0,0,0,1,1,6,NA,0,0,0,0,0,0,0,0,0,6,0,1,2,1,85,8.5,8.5,22,1,10,1,2,0,0,1,1,2,2,2,4,4,2,0,0,0,0,4,4,0,0,3,3,0,4,NA,NA,4,253,1,1,1,0.875,NA,70,0,4,0,0,0,1,0.363636363636364,0
5,"oe7g6vuf",1,1,80,1,5,90,95,75,30,105,43,0.714285731315613,71,0,1,43,NA,NA,NA,NA,NA,NA,2,1,6,"zlc5ls51",0,80,-10,10,10,7,10,6,0,0,1,1,1,0,0,1,1,1,40,40,1,1,1,0,0,0,1,1,6,NA,0,0,0,0,0,0,0,0,0,6,0,1,2,1,85,8.5,8.5,22,1,10,1,2,0,0,1,1,2,2,2,4,4,2,0,0,0,0,4,4,0,0,3,3,0,4,NA,NA,4,253,1,1,1,0.9375,NA,75,0,4,0,0,0,1,0.363636363636364,0
5,"oe7g6vuf",1,1,80,1,10,40,50,70,80,150,22,0.466666668653488,47,0,0,0,NA,NA,NA,NA,NA,NA,5,1,3,"zlc5ls51",0,80,-10,10,10,7,10,6,0,0,1,1,1,0,0,1,1,1,40,40,1,1,1,0,0,0,1,1,6,NA,0,0,0,0,0,0,0,0,0,6,0,1,2,1,85,8.5,8.5,22,1,10,1,2,0,0,1,1,2,2,2,4,4,2,0,0,0,0,4,4,0,0,3,3,0,4,NA,NA,4,253,1,1,1,0.875,NA,70,0,4,0,0,0,1,0.363636363636364,0
5,"oe7g6vuf",1,1,80,1,20,0,20,60,120,180,9,0.333333343267441,33,1,0,0,NA,NA,0,60,60,NA,5,1,1,"zlc5ls51",0,80,-10,10,10,7,10,6,0,0,1,1,1,0,0,1,1,1,40,40,1,1,1,0,0,0,1,1,6,NA,0,0,0,0,0,0,0,0,0,6,0,1,2,1,85,8.5,8.5,22,1,10,1,2,0,0,1,1,2,2,2,4,4,2,0,0,0,0,4,4,0,0,3,3,0,4,NA,NA,4,253,1,1,1,0.75,NA,60,0,4,0,0,0,1,0.363636363636364,0
5,"oe7g6vuf",1,0,80,0,5,60,65,75,60,135,29,0.555555582046509,56,0,NA,5,NA,NA,NA,NA,NA,NA,5,0,5,"zlc5ls51",0,80,-10,10,10,7,10,6,0,0,1,1,1,0,0,1,1,1,40,40,1,1,1,0,0,0,1,1,6,NA,0,0,0,0,0,0,0,0,0,6,0,1,2,1,85,8.5,8.5,22,1,10,1,2,0,0,1,1,2,2,2,4,4,2,0,0,0,0,4,4,0,0,3,3,0,4,NA,NA,4,253,1,1,0,0.9375,75,NA,0,2,0,0,1,0,0.363636363636364,0
5,"oe7g6vuf",1,0,80,1,10,40,50,70,80,150,22,0.466666668653488,47,1,1,22,NA,NA,NA,NA,NA,NA,6,1,4,"zlc5ls51",0,80,-10,10,10,7,10,6,0,0,1,1,1,0,0,1,1,1,40,40,1,1,1,0,0,0,1,1,6,NA,0,0,0,0,0,0,0,0,0,6,0,1,2,1,85,8.5,8.5,22,1,10,1,2,0,0,1,1,2,2,2,4,4,2,0,0,0,0,4,4,0,0,3,3,0,4,NA,NA,4,253,1,1,1,0.875,70,NA,0,2,0,0,1,0,0.363636363636364,0
5,"oe7g6vuf",1,1,80,1,10,50,60,70,70,140,27,0.5,50,1,1,27,NA,NA,NA,NA,NA,NA,6,1,2,"zlc5ls51",0,80,-10,10,10,7,10,6,0,0,1,1,1,0,0,1,1,1,40,40,1,1,1,0,0,0,1,1,6,NA,0,0,0,0,0,0,0,0,0,6,0,1,2,1,85,8.5,8.5,22,1,10,1,2,0,0,1,1,2,2,2,4,4,2,0,0,0,0,4,4,0,0,3,3,0,4,NA,NA,4,253,1,1,1,0.875,NA,70,0,4,0,0,0,1,0.363636363636364,0
11,"oi5n24wu",2,1,120,1,40,40,80,80,40,120,36,0.666666686534882,67,0,1,36,NA,NA,NA,NA,NA,NA,2,1,4,"e4y6khl6",0,78,-10,8,4,4,9,2,1,1,1,0,0,1,1,0,0,0,38,40,1,1,1,1,1,0,1,1,8,NA,0,3,6,9,12,15,15,17,20,8,0,1,2,1,110,11,11,21,1,8,1,2,1,0,0,1,1,0,0,3,3,0,0,0,3,1,3,3,0,1,3,2,NA,NA,1,1,3,260,15,15,1,0.666666666666667,NA,80,0,4,0,0,0,1,0.727272727272727,0
11,"oi5n24wu",2,0,120,1,60,0,60,60,80,140,27,0.428571432828903,43,1,0,0,NA,NA,NA,NA,NA,NA,6,1,6,"e4y6khl6",0,78,-10,8,4,4,9,2,1,1,1,0,0,1,1,0,0,0,38,40,1,1,1,1,1,0,1,1,8,NA,0,3,6,9,12,15,15,17,20,8,0,1,2,1,110,11,11,21,1,8,1,2,1,0,0,1,1,0,0,3,3,0,0,0,3,1,3,3,0,1,3,2,NA,NA,1,1,3,260,15,15,1,0.5,60,NA,0,2,0,0,1,0,0.727272727272727,0
11,"oi5n24wu",2,0,120,0,30,50,80,90,30,120,36,0.75,75,0,NA,30,NA,NA,1,60,20,NA,4,0,1,"e4y6khl6",0,78,-10,8,4,4,9,2,1,1,1,0,0,1,1,0,0,0,38,40,1,1,1,1,1,0,1,1,8,NA,0,3,6,9,12,15,15,17,20,8,0,1,2,1,110,11,11,21,1,8,1,2,1,0,0,1,1,0,0,3,3,0,0,0,3,1,3,3,0,1,3,2,NA,NA,1,1,3,260,15,15,0,0.75,90,NA,0,2,0,0,1,0,0.727272727272727,0
11,"oi5n24wu",2,0,120,1,50,0,50,70,80,150,22,0.466666668653488,47,1,1,22,34,NA,NA,NA,NA,2,5,1,7,"e4y6khl6",0,78,-10,8,4,4,9,2,1,1,1,0,0,1,1,0,0,0,38,40,1,1,1,1,1,0,1,1,8,NA,0,3,6,9,12,15,15,17,20,8,0,1,2,1,110,11,11,21,1,8,1,2,1,0,0,1,1,0,0,3,3,0,0,0,3,1,3,3,0,1,3,2,NA,NA,1,1,3,260,15,15,1,0.583333333333333,70,NA,0,2,0,0,1,0,0.727272727272727,0
11,"oi5n24wu",2,1,120,1,60,15,75,60,65,125,34,0.479999989271164,48,1,1,34,NA,NA,NA,NA,NA,NA,1,1,5,"e4y6khl6",0,78,-10,8,4,4,9,2,1,1,1,0,0,1,1,0,0,0,38,40,1,1,1,1,1,0,1,1,8,NA,0,3,6,9,12,15,15,17,20,8,0,1,2,1,110,11,11,21,1,8,1,2,1,0,0,1,1,0,0,3,3,0,0,0,3,1,3,3,0,1,3,2,NA,NA,1,1,3,260,15,15,1,0.5,NA,60,0,4,0,0,0,1,0.727272727272727,0
11,"oi5n24wu",2,1,120,1,40,80,120,80,0,80,54,1,100,0,1,54,NA,NA,NA,NA,NA,NA,2,1,2,"e4y6khl6",0,78,-10,8,4,4,9,2,1,1,1,0,0,1,1,0,0,0,38,40,1,1,1,1,1,0,1,1,8,NA,0,3,6,9,12,15,15,17,20,8,0,1,2,1,110,11,11,21,1,8,1,2,1,0,0,1,1,0,0,3,3,0,0,0,3,1,3,3,0,1,3,2,NA,NA,1,1,3,260,15,15,1,0.666666666666667,NA,80,0,4,0,0,0,1,0.727272727272727,0
11,"oi5n24wu",2,1,120,1,40,80,120,80,0,80,54,1,100,0,1,54,NA,NA,NA,NA,NA,NA,2,1,3,"e4y6khl6",0,78,-10,8,4,4,9,2,1,1,1,0,0,1,1,0,0,0,38,40,1,1,1,1,1,0,1,1,8,NA,0,3,6,9,12,15,15,17,20,8,0,1,2,1,110,11,11,21,1,8,1,2,1,0,0,1,1,0,0,3,3,0,0,0,3,1,3,3,0,1,3,2,NA,NA,1,1,3,260,15,15,1,0.666666666666667,NA,80,0,4,0,0,0,1,0.727272727272727,0
10,"ooz5saof",2,0,120,1,90,9,99,30,71,101,45,0.297029703855515,30,1,1,45,NA,NA,NA,NA,NA,NA,6,1,5,"zlc5ls51",0,80,30,24,10,9,8,0,0,0,1,1,1,0,0,0,0,0,40,40,1,1,1,0,0,0,0,1,16,16,0,4,8,14,16,26,28,31,32,8,16,0,2,1,179,17.8999996185303,18,19,0,3,1,3,3,3,3,3,3,3,2,3,3,0,0,0,0,4,3,3,3,0,1,0,NA,NA,3,0,3,267,1,1,1,0.25,30,NA,0,2,0,0,1,0,0.909090909090909,0
10,"ooz5saof",2,0,120,0,90,75,165,30,5,35,74,0.857142865657806,86,0,NA,90,45,NA,NA,NA,NA,2,6,0,7,"zlc5ls51",0,80,30,24,10,9,8,0,0,0,1,1,1,0,0,0,0,0,40,40,1,1,1,0,0,0,0,1,16,16,0,4,8,14,16,26,28,31,32,8,16,0,2,1,179,17.8999996185303,18,19,0,3,1,3,3,3,3,3,3,3,2,3,3,0,0,0,0,4,3,3,3,0,1,0,NA,NA,3,0,3,267,1,1,0,0.25,30,NA,0,2,0,0,1,0,0.909090909090909,0
10,"ooz5saof",2,0,120,1,90,5,95,30,75,105,43,0.28571429848671,29,1,0,0,NA,NA,NA,NA,NA,NA,2,1,6,"zlc5ls51",0,80,30,24,10,9,8,0,0,0,1,1,1,0,0,0,0,0,40,40,1,1,1,0,0,0,0,1,16,16,0,4,8,14,16,26,28,31,32,8,16,0,2,1,179,17.8999996185303,18,19,0,3,1,3,3,3,3,3,3,3,2,3,3,0,0,0,0,4,3,3,3,0,1,0,NA,NA,3,0,3,267,1,1,1,0.25,30,NA,0,2,0,0,1,0,0.909090909090909,0
10,"ooz5saof",2,0,120,0,110,60,170,10,20,30,76,0.333333343267441,33,0,NA,110,NA,NA,NA,NA,NA,NA,3,0,2,"zlc5ls51",0,80,30,24,10,9,8,0,0,0,1,1,1,0,0,0,0,0,40,40,1,1,1,0,0,0,0,1,16,16,0,4,8,14,16,26,28,31,32,8,16,0,2,1,179,17.8999996185303,18,19,0,3,1,3,3,3,3,3,3,3,2,3,3,0,0,0,0,4,3,3,3,0,1,0,NA,NA,3,0,3,267,1,1,0,0.0833333333333333,10,NA,0,2,0,0,1,0,0.909090909090909,0
10,"ooz5saof",2,1,120,1,90,20,110,30,60,90,50,0.333333343267441,33,1,0,0,NA,NA,0,0,80,NA,6,1,1,"zlc5ls51",0,80,30,24,10,9,8,0,0,0,1,1,1,0,0,0,0,0,40,40,1,1,1,0,0,0,0,1,16,16,0,4,8,14,16,26,28,31,32,8,16,0,2,1,179,17.8999996185303,18,19,0,3,1,3,3,3,3,3,3,3,2,3,3,0,0,0,0,4,3,3,3,0,1,0,NA,NA,3,0,3,267,1,1,1,0.25,NA,30,0,4,0,0,0,1,0.909090909090909,0
10,"ooz5saof",2,0,120,1,100,50,150,20,30,50,68,0.400000005960464,40,1,0,0,NA,NA,NA,NA,NA,NA,4,1,3,"zlc5ls51",0,80,30,24,10,9,8,0,0,0,1,1,1,0,0,0,0,0,40,40,1,1,1,0,0,0,0,1,16,16,0,4,8,14,16,26,28,31,32,8,16,0,2,1,179,17.8999996185303,18,19,0,3,1,3,3,3,3,3,3,3,2,3,3,0,0,0,0,4,3,3,3,0,1,0,NA,NA,3,0,3,267,1,1,1,0.166666666666667,20,NA,0,2,0,0,1,0,0.909090909090909,0
10,"ooz5saof",2,0,120,1,90,5,95,30,75,105,43,0.28571429848671,29,1,0,0,NA,NA,NA,NA,NA,NA,7,1,4,"zlc5ls51",0,80,30,24,10,9,8,0,0,0,1,1,1,0,0,0,0,0,40,40,1,1,1,0,0,0,0,1,16,16,0,4,8,14,16,26,28,31,32,8,16,0,2,1,179,17.8999996185303,18,19,0,3,1,3,3,3,3,3,3,3,2,3,3,0,0,0,0,4,3,3,3,0,1,0,NA,NA,3,0,3,267,1,1,1,0.25,30,NA,0,2,0,0,1,0,0.909090909090909,0
10,"phptdyzn",2,0,120,1,100,10,110,20,70,90,50,0.222222223877907,22,1,0,0,NA,NA,NA,NA,NA,NA,3,1,2,"a9g7r98j",0,80,30,24,7,5,9,8,0,0,0,1,1,0,1,1,1,1,40,40,1,1,0,0,0,0,0,1,8,4,0,2,4,6,8,10,12,14,16,4,4,0,2,1,152,15.1999998092651,15.5,26,0,6,0,3,0,0,0,0,0,0,0,4,3,3,3,3,2,3,4,3,0,0,3,3,NA,NA,0,3,3,274,8,8,1,0.166666666666667,20,NA,0,2,0,0,1,0,0.272727272727273,0
10,"phptdyzn",2,1,120,1,40,0,40,80,80,160,18,0.5,50,1,1,18,NA,NA,NA,NA,NA,NA,6,1,5,"a9g7r98j",0,80,30,24,7,5,9,8,0,0,0,1,1,0,1,1,1,1,40,40,1,1,0,0,0,0,0,1,8,4,0,2,4,6,8,10,12,14,16,4,4,0,2,1,152,15.1999998092651,15.5,26,0,6,0,3,0,0,0,0,0,0,0,4,3,3,3,3,2,3,4,3,0,0,3,3,NA,NA,0,3,3,274,8,8,1,0.666666666666667,NA,80,0,4,0,0,0,1,0.272727272727273,0
10,"phptdyzn",2,0,120,0,100,80,180,20,0,20,81,1,100,0,NA,100,NA,NA,0,20,60,NA,6,0,1,"a9g7r98j",0,80,30,24,7,5,9,8,0,0,0,1,1,0,1,1,1,1,40,40,1,1,0,0,0,0,0,1,8,4,0,2,4,6,8,10,12,14,16,4,4,0,2,1,152,15.1999998092651,15.5,26,0,6,0,3,0,0,0,0,0,0,0,4,3,3,3,3,2,3,4,3,0,0,3,3,NA,NA,0,3,3,274,8,8,0,0.166666666666667,20,NA,0,2,0,0,1,0,0.272727272727273,0
10,"phptdyzn",2,1,120,1,20,60,80,100,20,120,36,0.833333313465118,83,0,1,36,NA,NA,NA,NA,NA,NA,7,1,4,"a9g7r98j",0,80,30,24,7,5,9,8,0,0,0,1,1,0,1,1,1,1,40,40,1,1,0,0,0,0,0,1,8,4,0,2,4,6,8,10,12,14,16,4,4,0,2,1,152,15.1999998092651,15.5,26,0,6,0,3,0,0,0,0,0,0,0,4,3,3,3,3,2,3,4,3,0,0,3,3,NA,NA,0,3,3,274,8,8,1,0.833333333333333,NA,100,0,4,0,0,0,1,0.272727272727273,0
10,"phptdyzn",2,1,120,1,30,0,30,90,80,170,14,0.529411792755127,53,1,1,14,NA,NA,NA,NA,NA,NA,2,1,6,"a9g7r98j",0,80,30,24,7,5,9,8,0,0,0,1,1,0,1,1,1,1,40,40,1,1,0,0,0,0,0,1,8,4,0,2,4,6,8,10,12,14,16,4,4,0,2,1,152,15.1999998092651,15.5,26,0,6,0,3,0,0,0,0,0,0,0,4,3,3,3,3,2,3,4,3,0,0,3,3,NA,NA,0,3,3,274,8,8,1,0.75,NA,90,0,4,0,0,0,1,0.272727272727273,0
10,"phptdyzn",2,1,120,1,50,0,50,70,80,150,22,0.466666668653488,47,1,1,22,NA,NA,NA,NA,NA,NA,4,1,3,"a9g7r98j",0,80,30,24,7,5,9,8,0,0,0,1,1,0,1,1,1,1,40,40,1,1,0,0,0,0,0,1,8,4,0,2,4,6,8,10,12,14,16,4,4,0,2,1,152,15.1999998092651,15.5,26,0,6,0,3,0,0,0,0,0,0,0,4,3,3,3,3,2,3,4,3,0,0,3,3,NA,NA,0,3,3,274,8,8,1,0.583333333333333,NA,70,0,4,0,0,0,1,0.272727272727273,0
10,"phptdyzn",2,1,120,1,40,40,80,80,40,120,36,0.666666686534882,67,0,0,0,18,NA,NA,NA,NA,2,6,1,7,"a9g7r98j",0,80,30,24,7,5,9,8,0,0,0,1,1,0,1,1,1,1,40,40,1,1,0,0,0,0,0,1,8,4,0,2,4,6,8,10,12,14,16,4,4,0,2,1,152,15.1999998092651,15.5,26,0,6,0,3,0,0,0,0,0,0,0,4,3,3,3,3,2,3,4,3,0,0,3,3,NA,NA,0,3,3,274,8,8,1,0.666666666666667,NA,80,0,4,0,0,0,1,0.272727272727273,0
2,"pzio7qu6",1,1,80,1,0,45,45,80,75,155,20,0.516129016876221,52,1,1,20,NA,NA,NA,NA,NA,NA,2,1,5,"a9g7r98j",0,80,-10,9,10,9,9,0,0,0,0,1,1,0,0,0,0,0,40,40,1,0,0,0,0,0,1,1,8,NA,0,4,8,12,16,17,24,27,32,8,1,1,2,1,99,9.89999961853027,10,20,0,3,1,2,0,0,4,1,2,3,3,3,3,3,3,3,3,3,3,3,0,0,3,3,0,3,NA,NA,3,281,8,8,1,1,NA,80,0,4,0,0,0,1,0.454545454545455,0
2,"pzio7qu6",1,1,80,1,1,0,1,79,120,199,0,0.396984934806824,40,1,1,0,NA,NA,NA,NA,NA,NA,1,1,4,"a9g7r98j",0,80,-10,9,10,9,9,0,0,0,0,1,1,0,0,0,0,0,40,40,1,0,0,0,0,0,1,1,8,NA,0,4,8,12,16,17,24,27,32,8,1,1,2,1,99,9.89999961853027,10,20,0,3,1,2,0,0,4,1,2,3,3,3,3,3,3,3,3,3,3,3,0,0,3,3,0,3,NA,NA,3,281,8,8,1,0.9875,NA,79,0,4,0,0,0,1,0.454545454545455,0
2,"pzio7qu6",1,1,80,1,10,100,110,70,20,90,50,0.777777791023254,78,0,1,50,NA,NA,NA,NA,NA,NA,3,1,2,"a9g7r98j",0,80,-10,9,10,9,9,0,0,0,0,1,1,0,0,0,0,0,40,40,1,0,0,0,0,0,1,1,8,NA,0,4,8,12,16,17,24,27,32,8,1,1,2,1,99,9.89999961853027,10,20,0,3,1,2,0,0,4,1,2,3,3,3,3,3,3,3,3,3,3,3,0,0,3,3,0,3,NA,NA,3,281,8,8,1,0.875,NA,70,0,4,0,0,0,1,0.454545454545455,0
2,"pzio7qu6",1,1,80,1,0,60,60,80,60,140,27,0.571428596973419,57,0,0,0,NA,NA,NA,NA,NA,NA,5,1,6,"a9g7r98j",0,80,-10,9,10,9,9,0,0,0,0,1,1,0,0,0,0,0,40,40,1,0,0,0,0,0,1,1,8,NA,0,4,8,12,16,17,24,27,32,8,1,1,2,1,99,9.89999961853027,10,20,0,3,1,2,0,0,4,1,2,3,3,3,3,3,3,3,3,3,3,3,0,0,3,3,0,3,NA,NA,3,281,8,8,1,1,NA,80,0,4,0,0,0,1,0.454545454545455,0
